Data from HR4C21111__53__10-17-57-932.txt Node

Date: Mon Feb 22 10:17:57 IST 2021
User: Kapil
Spectrometer: HR4C2111
Trigger mode: 4
Integration Time (sec): 2.300000E0
Scans to average: 1
Electric dark correction enabled: true
Nonlinearity correction enabled: false
Boxcar width: 0
XAxis mode: Wavelengths
Number of Pixels in Spectrum: 3648
>>>>>Begin Spectral Data<<<<<
189.472	-459.46
189.745	-459.46
190.017	-459.46
190.289	-465.46
190.561	-304.46
190.834	-40.46
191.106	-130.46
191.378	27.54
191.65	20.54
191.923	-142.46
192.195	-107.46
192.467	121.54
192.739	117.54
193.011	-17.46
193.284	78.54
193.556	171.54
193.828	-12.46
194.1	-86.46
194.372	-119.46
194.644	35.54
194.916	46.54
195.188	-167.46
195.46	-85.46
195.732	44.54
196.004	-32.46
196.276	-114.46
196.548	-69.46
196.82	60.54
197.092	42.54
197.364	-147.46
197.636	-95.46
197.908	18.54
198.18	-49.46
198.452	-100.46
198.724	-56.46
198.996	38.54
199.268	73.54
199.54	-30.46
199.811	-120.46
200.083	100.54
200.355	12.54
200.627	-202.46
200.899	-71.46
201.171	38.54
201.442	-77.46
201.714	-203.46
201.986	-101.46
202.258	58.54
202.529	99.54
202.801	-11.46
203.073	66.54
203.345	179.54
203.616	0.54
203.888	-146.46
204.16	-160.46
204.431	59.54
204.703	-8.46
204.974	-134.46
205.246	-12.46
205.518	173.54
205.789	-8.46
206.061	-143.46
206.332	-115.46
206.604	-0.46
206.876	90.54
207.147	118.54
207.419	5.54
207.69	129.54
207.962	-46.46
208.233	-185.46
208.505	-4.46
208.776	145.54
209.047	60.54
209.319	-131.46
209.59	-93.46
209.862	130.54
210.133	29.54
210.404	-145.46
210.676	-110.46
210.947	78.54
211.219	65.54
211.49	-134.46
211.761	-66.46
212.033	27.54
212.304	-55.46
212.575	-198.46
212.846	-102.46
213.118	12.54
213.389	-66.46
213.66	-118.46
213.931	-58.46
214.203	21.54
214.474	-50.46
214.745	-144.46
215.016	125.54
215.287	437.54
215.559	54.54
215.83	-118.46
216.101	-77.46
216.372	-8.46
216.643	59.54
216.914	-5.46
217.185	-88.46
217.456	147.54
217.727	15.54
217.998	-164.46
218.269	-74.46
218.54	26.54
218.811	-22.46
219.082	-121.46
219.353	-92.46
219.624	-23.46
219.895	-42.46
220.166	-142.46
220.437	-117.46
220.708	82.54
220.979	-13.46
221.25	-141.46
221.521	-105.46
221.792	9.54
222.063	61.54
222.334	29.54
222.604	187.54
222.875	162.54
223.146	67.54
223.417	-203.46
223.688	-50.46
223.958	105.54
224.229	-63.46
224.5	-198.46
224.771	-83.46
225.041	85.54
225.312	53.54
225.583	-103.46
225.854	-66.46
226.124	78.54
226.395	-13.46
226.666	-137.46
226.936	-114.46
227.207	44.54
227.478	-63.46
227.748	-112.46
228.019	33.54
228.289	235.54
228.56	-46.46
228.831	-65.46
229.101	31.54
229.372	50.54
229.642	-38.46
229.913	-175.46
230.183	-143.46
230.454	-19.46
230.724	-13.46
230.995	-108.46
231.265	-73.46
231.536	60.54
231.806	32.54
232.076	-117.46
232.347	-122.46
232.617	25.54
232.888	8.54
233.158	-88.46
233.428	-140.46
233.699	-24.46
233.969	-52.46
234.239	-162.46
234.51	-96.46
234.78	31.54
235.05	-31.46
235.321	-136.46
235.591	-83.46
235.861	51.54
236.131	-62.46
236.402	-200.46
236.672	-102.46
236.942	39.54
237.212	36.54
237.483	-86.46
237.753	-10.46
238.023	143.54
238.293	6.54
238.563	-87.46
238.833	-117.46
239.103	63.54
239.374	-28.46
239.644	-139.46
239.914	-37.46
240.184	118.54
240.454	-4.46
240.724	-178.46
240.994	-68.46
241.264	15.54
241.534	49.54
241.804	-26.46
242.074	-99.46
242.344	-55.46
242.614	-74.46
242.884	-203.46
243.154	-137.46
243.424	31.54
243.694	62.54
243.964	-101.46
244.234	-88.46
244.503	119.54
244.773	2.54
245.043	-233.46
245.313	-138.46
245.583	112.54
245.853	64.54
246.123	-188.46
246.392	-105.46
246.662	-3.46
246.932	-40.46
247.202	-198.46
247.471	-81.46
247.741	238.54
248.011	87.54
248.281	-166.46
248.55	-108.46
248.82	53.54
249.09	-14.46
249.359	-90.46
249.629	-78.46
249.899	39.54
250.168	41.54
250.438	-32.46
250.708	-114.46
250.977	61.54
251.247	56.54
251.516	-117.46
251.786	-61.46
252.055	116.54
252.325	14.54
252.595	-103.46
252.864	-52.46
253.134	40.54
253.403	-46.46
253.673	-177.46
253.942	-120.46
254.212	18.54
254.481	-24.46
254.75	-160.46
255.02	-90.46
255.289	70.54
255.559	-34.46
255.828	-150.46
256.097	-42.46
256.367	20.54
256.636	-75.46
256.906	-145.46
257.175	-24.46
257.444	247.54
257.714	51.54
257.983	-87.46
258.252	-56.46
258.521	-11.46
258.791	41.54
259.06	-121.46
259.329	-56.46
259.598	51.54
259.868	-30.46
260.137	-151.46
260.406	-32.46
260.675	74.54
260.944	11.54
261.214	-135.46
261.483	-57.46
261.752	178.54
262.021	19.54
262.29	-155.46
262.559	-130.46
262.828	12.54
263.097	-42.46
263.366	-220.46
263.635	-106.46
263.905	124.54
264.174	-4.46
264.443	-225.46
264.712	-116.46
264.981	29.54
265.25	-61.46
265.519	-149.46
265.788	-155.46
266.057	11.54
266.325	37.54
266.594	-72.46
266.863	-129.46
267.132	13.54
267.401	-21.46
267.67	-208.46
267.939	-164.46
268.208	10.54
268.477	45.54
268.745	-143.46
269.014	-116.46
269.283	111.54
269.552	27.54
269.821	-127.46
270.089	-17.46
270.358	2.54
270.627	-34.46
270.896	-144.46
271.164	-166.46
271.433	7.54
271.702	71.54
271.971	-155.46
272.239	-149.46
272.508	16.54
272.777	-43.46
273.045	-27.46
273.314	-34.46
273.583	97.54
273.851	-23.46
274.12	-166.46
274.388	-128.46
274.657	-7.46
274.926	-21.46
275.194	-166.46
275.463	-79.46
275.731	16.54
276	156.54
276.268	347.54
276.537	-87.46
276.805	24.54
277.074	42.54
277.342	-174.46
277.611	-117.46
277.879	85.54
278.148	15.54
278.416	-162.46
278.684	-143.46
278.953	-46.46
279.221	-45.46
279.49	-202.46
279.758	-117.46
280.026	-24.46
280.295	-3.46
280.563	-142.46
280.831	1007.54
281.1	2444.54
281.368	218.54
281.636	-105.46
281.904	-119.46
282.173	-25.46
282.441	-70.46
282.709	-102.46
282.977	12.54
283.246	29.54
283.514	-35.46
283.782	-65.46
284.05	15.54
284.318	54.54
284.587	-38.46
284.855	-143.46
285.123	-87.46
285.391	55.54
285.659	34.54
285.927	-162.46
286.195	-82.46
286.463	45.54
286.732	-7.46
287	-121.46
287.268	-71.46
287.536	12.54
287.804	-44.46
288.072	-136.46
288.34	-106.46
288.608	60.54
288.876	-40.46
289.144	-132.46
289.412	-31.46
289.68	52.54
289.948	-33.46
290.215	-129.46
290.483	-121.46
290.751	83.54
291.019	82.54
291.287	-182.46
291.555	-130.46
291.823	14.54
292.091	-32.46
292.358	-83.46
292.626	-32.46
292.894	67.54
293.162	42.54
293.43	-118.46
293.697	-101.46
293.965	38.54
294.233	-35.46
294.501	-174.46
294.768	-95.46
295.036	45.54
295.304	32.54
295.572	-147.46
295.839	-110.46
296.107	94.54
296.375	-9.46
296.642	-155.46
296.91	-145.46
297.178	28.54
297.445	162.54
297.713	86.54
297.98	-95.46
298.248	-39.46
298.516	-58.46
298.783	-135.46
299.051	-134.46
299.318	-4.46
299.586	-44.46
299.853	-92.46
300.121	-91.46
300.388	26.54
300.656	-26.46
300.923	-158.46
301.191	-49.46
301.458	44.54
301.726	-36.46
301.993	-166.46
302.26	-106.46
302.528	30.54
302.795	-26.46
303.063	-91.46
303.33	-60.46
303.597	21.54
303.865	-0.46
304.132	-136.46
304.399	-124.46
304.667	-46.46
304.934	-11.46
305.201	-129.46
305.469	-52.46
305.736	37.54
306.003	41.54
306.27	-60.46
306.538	-111.46
306.805	-22.46
307.072	-52.46
307.339	-114.46
307.606	-62.46
307.874	142.54
308.141	55.54
308.408	-141.46
308.675	-123.46
308.942	-59.46
309.209	-95.46
309.477	-156.46
309.744	-115.46
310.011	4.54
310.278	19.54
310.545	-54.46
310.812	-68.46
311.079	121.54
311.346	186.54
311.613	54.54
311.88	-37.46
312.147	-79.46
312.414	-54.46
312.681	-129.46
312.948	-45.46
313.215	106.54
313.482	66.54
313.749	-120.46
314.016	-223.46
314.283	-74.46
314.55	20.54
314.817	-109.46
315.083	-141.46
315.35	-85.46
315.617	-152.46
315.884	-159.46
316.151	41.54
316.418	146.54
316.684	-35.46
316.951	-204.46
317.218	-137.46
317.485	-21.46
317.752	-71.46
318.018	-138.46
318.285	-26.46
318.552	12.54
318.819	-61.46
319.085	-157.46
319.352	-66.46
319.619	20.54
319.885	-57.46
320.152	-214.46
320.419	-125.46
320.685	16.54
320.952	-46.46
321.219	-89.46
321.485	52.54
321.752	4.54
322.019	-62.46
322.285	12.54
322.552	-25.46
322.818	113.54
323.085	-36.46
323.351	-151.46
323.618	-30.46
323.884	25.54
324.151	-81.46
324.417	-61.46
324.684	-99.46
324.95	-63.46
325.217	-155.46
325.483	-194.46
325.75	-48.46
326.016	-15.46
326.283	-38.46
326.549	-198.46
326.815	-82.46
327.082	89.54
327.348	8.54
327.615	-106.46
327.881	-33.46
328.147	104.54
328.414	116.54
328.68	-7.46
328.946	-52.46
329.212	2.54
329.479	-9.46
329.745	-120.46
330.011	-125.46
330.278	-0.46
330.544	-50.46
330.81	-35.46
331.076	-40.46
331.342	-53.46
331.609	-50.46
331.875	-90.46
332.141	-102.46
332.407	17.54
332.673	-9.46
332.94	-27.46
333.206	-49.46
333.472	42.54
333.738	58.54
334.004	-137.46
334.27	-44.46
334.536	-28.46
334.802	-65.46
335.068	-126.46
335.334	-13.46
335.6	-0.46
335.866	-49.46
336.132	-178.46
336.398	-102.46
336.664	-46.46
336.93	-73.46
337.196	-109.46
337.462	-41.46
337.728	25.54
337.994	-54.46
338.26	-127.46
338.526	-62.46
338.792	-69.46
339.058	-62.46
339.324	-154.46
339.59	-31.46
339.856	49.54
340.121	-70.46
340.387	-142.46
340.653	67.54
340.919	132.54
341.185	38.54
341.45	-93.46
341.716	-7.46
341.982	92.54
342.248	-66.46
342.514	-95.46
342.779	-15.46
343.045	21.54
343.311	-21.46
343.576	-97.46
343.842	-59.46
344.108	106.54
344.374	0.54
344.639	-135.46
344.905	-104.46
345.171	45.54
345.436	-75.46
345.702	-116.46
345.967	25.54
346.233	55.54
346.499	-16.46
346.764	-199.46
347.03	-97.46
347.295	-49.46
347.561	-21.46
347.826	-70.46
348.092	-152.46
348.357	-55.46
348.623	-54.46
348.888	-156.46
349.154	-109.46
349.419	38.54
349.685	-11.46
349.95	-120.46
350.216	-96.46
350.481	7.54
350.747	-75.46
351.012	-206.46
351.277	-138.46
351.543	1.54
351.808	-48.46
352.074	-221.46
352.339	-171.46
352.604	-10.46
352.87	-28.46
353.135	-139.46
353.4	-94.46
353.666	-49.46
353.931	-48.46
354.196	-173.46
354.461	-168.46
354.727	-10.46
354.992	-43.46
355.257	-179.46
355.522	-78.46
355.788	-42.46
356.053	19.54
356.318	-122.46
356.583	-147.46
356.848	53.54
357.113	158.54
357.379	-124.46
357.644	-136.46
357.909	59.54
358.174	96.54
358.439	-176.46
358.704	-133.46
358.969	-7.46
359.234	17.54
359.499	-167.46
359.765	-96.46
360.03	36.54
360.295	32.54
360.56	-146.46
360.825	-83.46
361.09	110.54
361.355	-78.46
361.62	-119.46
361.885	-84.46
362.15	-98.46
362.415	-84.46
362.679	-151.46
362.944	-7.46
363.209	13.54
363.474	36.54
363.739	-35.46
364.004	-130.46
364.269	-68.46
364.534	-27.46
364.799	-88.46
365.063	-80.46
365.328	13.54
365.593	29.54
365.858	-116.46
366.123	-127.46
366.387	17.54
366.652	-66.46
366.917	-180.46
367.182	-122.46
367.447	24.54
367.711	-35.46
367.976	-97.46
368.241	-27.46
368.505	22.54
368.77	-72.46
369.035	-95.46
369.299	-47.46
369.564	-12.46
369.829	-96.46
370.093	-131.46
370.358	-136.46
370.623	-36.46
370.887	-14.46
371.152	-161.46
371.416	-88.46
371.681	-59.46
371.946	-144.46
372.21	-179.46
372.475	-51.46
372.739	-18.46
373.004	-69.46
373.268	-110.46
373.533	-65.46
373.797	-19.46
374.062	-27.46
374.326	-176.46
374.591	-94.46
374.855	-16.46
375.12	-77.46
375.384	-237.46
375.648	-161.46
375.913	-30.46
376.177	-21.46
376.442	-137.46
376.706	-126.46
376.97	0.54
377.235	-52.46
377.499	-93.46
377.763	-110.46
378.028	-103.46
378.292	-57.46
378.556	-140.46
378.821	-204.46
379.085	-116.46
379.349	-187.46
379.614	-258.46
379.878	-146.46
380.142	44.54
380.406	-40.46
380.671	-65.46
380.935	65.54
381.199	154.54
381.463	29.54
381.727	-29.46
381.991	-80.46
382.256	-5.46
382.52	-60.46
382.784	-57.46
383.048	70.54
383.312	-14.46
383.576	-56.46
383.84	-164.46
384.104	-99.46
384.369	-31.46
384.633	-150.46
384.897	-238.46
385.161	-120.46
385.425	-13.46
385.689	-78.46
385.953	-133.46
386.217	-170.46
386.481	-62.46
386.745	-40.46
387.009	-81.46
387.273	-137.46
387.537	-89.46
387.801	-68.46
388.064	-142.46
388.328	-50.46
388.592	-5.46
388.856	-88.46
389.12	-149.46
389.384	-78.46
389.648	-47.46
389.912	25.54
390.176	11.54
390.439	112.54
390.703	-65.46
390.967	-101.46
391.231	-179.46
391.495	-133.46
391.758	-69.46
392.022	-50.46
392.286	-179.46
392.55	-162.46
392.813	-55.46
393.077	-9.46
393.341	-76.46
393.605	-7.46
393.868	-57.46
394.132	-78.46
394.396	-100.46
394.659	15.54
394.923	-38.46
395.187	-102.46
395.45	-132.46
395.714	-78.46
395.978	-46.46
396.241	-33.46
396.505	-106.46
396.768	-58.46
397.032	-11.46
397.295	-10.46
397.559	-101.46
397.823	-137.46
398.086	-5.46
398.35	-55.46
398.613	-176.46
398.877	-43.46
399.14	74.54
399.404	67.54
399.667	-39.46
399.931	-116.46
400.194	-29.46
400.457	-58.46
400.721	-88.46
400.984	11.54
401.248	-47.46
401.511	-90.46
401.775	-183.46
402.038	-137.46
402.301	69.54
402.565	12.54
402.828	-221.46
403.091	-137.46
403.355	-11.46
403.618	-11.46
403.881	-19.46
404.145	-68.46
404.408	-6.46
404.671	-48.46
404.934	-43.46
405.198	-17.46
405.461	-6.46
405.724	23.54
405.987	-10.46
406.251	19.54
406.514	106.54
406.777	-44.46
407.04	-122.46
407.303	-147.46
407.567	-4.46
407.83	59.54
408.093	-132.46
408.356	-39.46
408.619	27.54
408.882	56.54
409.145	-54.46
409.408	-78.46
409.672	16.54
409.935	-41.46
410.198	-162.46
410.461	-93.46
410.724	53.54
410.987	-29.46
411.25	-140.46
411.513	-21.46
411.776	40.54
412.039	-80.46
412.302	-130.46
412.565	-131.46
412.828	-82.46
413.091	-97.46
413.354	-167.46
413.617	-129.46
413.879	-64.46
414.142	-42.46
414.405	-153.46
414.668	-79.46
414.931	37.54
415.194	4.54
415.457	-148.46
415.72	-85.46
415.983	-31.46
416.245	-24.46
416.508	-133.46
416.771	-149.46
417.034	0.54
417.297	-12.46
417.559	-49.46
417.822	-81.46
418.085	16.54
418.348	-10.46
418.61	-156.46
418.873	-143.46
419.136	-105.46
419.399	-120.46
419.661	-94.46
419.924	-106.46
420.187	-19.46
420.449	-58.46
420.712	-118.46
420.975	-163.46
421.237	-54.46
421.5	-62.46
421.762	-16.46
422.025	23.54
422.288	45.54
422.55	-120.46
422.813	-198.46
423.075	-110.46
423.338	-47.46
423.601	-32.46
423.863	-87.46
424.126	-74.46
424.388	36.54
424.651	-35.46
424.913	-97.46
425.176	-95.46
425.438	-59.46
425.701	2.54
425.963	-128.46
426.225	-167.46
426.488	-75.46
426.75	-100.46
427.013	-162.46
427.275	-96.46
427.538	-74.46
427.8	-83.46
428.062	-155.46
428.325	-82.46
428.587	18.54
428.849	-41.46
429.112	-105.46
429.374	-122.46
429.636	-61.46
429.899	-3.46
430.161	-112.46
430.423	-93.46
430.686	-2.46
430.948	-26.46
431.21	-158.46
431.472	-163.46
431.735	-73.46
431.997	-101.46
432.259	-83.46
432.521	-130.46
432.783	-29.46
433.046	-44.46
433.308	-147.46
433.57	-87.46
433.832	117.54
434.094	-82.46
434.356	-208.46
434.618	-122.46
434.881	-49.46
435.143	-94.46
435.405	-67.46
435.667	-46.46
435.929	-39.46
436.191	-73.46
436.453	-160.46
436.715	-73.46
436.977	-8.46
437.239	-53.46
437.501	-167.46
437.763	-134.46
438.025	-3.46
438.287	-29.46
438.549	-127.46
438.811	-84.46
439.073	-47.46
439.335	-126.46
439.597	-138.46
439.859	-60.46
440.121	49.54
440.383	-114.46
440.645	-132.46
440.907	-76.46
441.168	-23.46
441.43	-80.46
441.692	-172.46
441.954	-134.46
442.216	-57.46
442.478	-80.46
442.74	-200.46
443.001	-96.46
443.263	52.54
443.525	-10.46
443.787	-138.46
444.048	-99.46
444.31	-71.46
444.572	-86.46
444.834	-115.46
445.095	-103.46
445.357	18.54
445.619	-32.46
445.881	-228.46
446.142	-139.46
446.404	-73.46
446.666	-61.46
446.927	-108.46
447.189	43.54
447.451	46.54
447.712	-15.46
447.974	-226.46
448.235	-184.46
448.497	-46.46
448.759	-116.46
449.02	-179.46
449.282	-212.46
449.543	-45.46
449.805	8.54
450.066	-210.46
450.328	-92.46
450.59	113.54
450.851	-34.46
451.113	-67.46
451.374	-154.46
451.636	-18.46
451.897	20.54
452.158	-59.46
452.42	44.54
452.681	68.54
452.943	-99.46
453.204	-185.46
453.466	-171.46
453.727	-92.46
453.988	-57.46
454.25	-166.46
454.511	-195.46
454.773	-77.46
455.034	68.54
455.295	-160.46
455.557	-180.46
455.818	-85.46
456.079	-55.46
456.341	42.54
456.602	23.54
456.863	3.54
457.124	-75.46
457.386	-179.46
457.647	-189.46
457.908	-105.46
458.169	11.54
458.431	-173.46
458.692	-182.46
458.953	-75.46
459.214	-104.46
459.476	-95.46
459.737	-24.46
459.998	7.54
460.259	-74.46
460.52	-189.46
460.781	-133.46
461.043	20.54
461.304	-100.46
461.565	-194.46
461.826	-158.46
462.087	-52.46
462.348	-10.46
462.609	-145.46
462.87	-75.46
463.131	-98.46
463.392	-20.46
463.653	-117.46
463.914	-81.46
464.175	-27.46
464.436	-99.46
464.697	-165.46
464.958	-136.46
465.219	-35.46
465.48	-51.46
465.741	-90.46
466.002	-136.46
466.263	-82.46
466.524	-56.46
466.785	-157.46
467.046	-126.46
467.307	-41.46
467.568	-109.46
467.829	-121.46
468.089	-81.46
468.35	-38.46
468.611	-90.46
468.872	-173.46
469.133	-68.46
469.394	10.54
469.655	56.54
469.915	-121.46
470.176	-180.46
470.437	-141.46
470.698	-71.46
470.958	-135.46
471.219	-187.46
471.48	-117.46
471.741	-124.46
472.001	-185.46
472.262	-132.46
472.523	-8.46
472.784	34.54
473.044	-131.46
473.305	-89.46
473.566	26.54
473.826	-11.46
474.087	-132.46
474.348	-122.46
474.608	-56.46
474.869	-14.46
475.129	-128.46
475.39	-163.46
475.651	-76.46
475.911	-38.46
476.172	-184.46
476.432	-82.46
476.693	62.54
476.953	-30.46
477.214	-58.46
477.475	-40.46
477.735	-28.46
477.996	-26.46
478.256	-221.46
478.517	-179.46
478.777	-63.46
479.038	10.54
479.298	-11.46
479.558	-92.46
479.819	56.54
480.079	45.54
480.34	-45.46
480.6	-114.46
480.861	-23.46
481.121	-59.46
481.381	-157.46
481.642	-81.46
481.902	-61.46
482.162	-144.46
482.423	-136.46
482.683	-48.46
482.943	-12.46
483.204	-105.46
483.464	-120.46
483.724	-94.46
483.985	-46.46
484.245	-9.46
484.505	-109.46
484.765	-30.46
485.026	47.54
485.286	14.54
485.546	-69.46
485.806	-17.46
486.067	-3.46
486.327	-117.46
486.587	-178.46
486.847	-156.46
487.107	-46.46
487.368	-27.46
487.628	-106.46
487.888	-113.46
488.148	-12.46
488.408	-103.46
488.668	-100.46
488.928	-51.46
489.188	-45.46
489.449	47.54
489.709	-95.46
489.969	-120.46
490.229	-40.46
490.489	-54.46
490.749	-133.46
491.009	-200.46
491.269	-109.46
491.529	-105.46
491.789	-179.46
492.049	-102.46
492.309	1.54
492.569	-86.46
492.829	-122.46
493.089	-122.46
493.349	33.54
493.609	-51.46
493.869	-153.46
494.129	-81.46
494.389	33.54
494.648	-88.46
494.908	-181.46
495.168	-89.46
495.428	28.54
495.688	-47.46
495.948	-215.46
496.208	-190.46
496.467	-122.46
496.727	-74.46
496.987	-93.46
497.247	-109.46
497.507	-22.46
497.767	11.54
498.026	-172.46
498.286	-83.46
498.546	105.54
498.806	-21.46
499.065	32.54
499.325	-41.46
499.585	-51.46
499.845	-49.46
500.104	-49.46
500.364	36.54
500.624	-10.46
500.883	-81.46
501.143	-43.46
501.403	-0.46
501.662	76.54
501.922	-18.46
502.182	-153.46
502.441	-153.46
502.701	-81.46
502.96	27.54
503.22	-53.46
503.48	-105.46
503.739	-34.46
503.999	-76.46
504.258	-158.46
504.518	-91.46
504.777	15.54
505.037	-31.46
505.296	-89.46
505.556	-111.46
505.815	20.54
506.075	87.54
506.334	-12.46
506.594	-173.46
506.853	-104.46
507.113	-102.46
507.372	-240.46
507.632	-166.46
507.891	-60.46
508.151	-26.46
508.41	-182.46
508.669	-141.46
508.929	-8.46
509.188	-63.46
509.447	-110.46
509.707	-152.46
509.966	-64.46
510.226	-44.46
510.485	-98.46
510.744	-74.46
511.004	3.54
511.263	-87.46
511.522	-186.46
511.781	-138.46
512.041	-2.46
512.3	-67.46
512.559	-38.46
512.818	3.54
513.078	6.54
513.337	-21.46
513.596	-113.46
513.855	-122.46
514.115	2.54
514.374	-69.46
514.633	-178.46
514.892	-180.46
515.151	-34.46
515.41	8.54
515.67	-81.46
515.929	-136.46
516.188	-47.46
516.447	-66.46
516.706	-140.46
516.965	-121.46
517.224	-86.46
517.483	-83.46
517.743	-134.46
518.002	-86.46
518.261	-2.46
518.52	-41.46
518.779	-145.46
519.038	-126.46
519.297	-76.46
519.556	-89.46
519.815	-184.46
520.074	-170.46
520.333	-76.46
520.592	-82.46
520.851	-165.46
521.11	-54.46
521.369	88.54
521.628	-82.46
521.887	-169.46
522.145	-101.46
522.404	-41.46
522.663	-55.46
522.922	-210.46
523.181	-184.46
523.44	-37.46
523.699	-15.46
523.958	-193.46
524.217	-156.46
524.475	-129.46
524.734	-156.46
524.993	-180.46
525.252	-108.46
525.511	-34.46
525.769	-94.46
526.028	-174.46
526.287	-110.46
526.546	-43.46
526.805	-65.46
527.063	-161.46
527.322	-178.46
527.581	-89.46
527.839	-74.46
528.098	-89.46
528.357	-73.46
528.616	-51.46
528.874	-70.46
529.133	-107.46
529.392	-88.46
529.65	-34.46
529.909	-62.46
530.168	-164.46
530.426	-117.46
530.685	17.54
530.943	-29.46
531.202	-151.46
531.461	-154.46
531.719	-9.46
531.978	-73.46
532.236	-147.46
532.495	-70.46
532.753	-9.46
533.012	-106.46
533.271	-177.46
533.529	-173.46
533.788	-93.46
534.046	-168.46
534.305	-203.46
534.563	18.54
534.822	95.54
535.08	-35.46
535.338	-145.46
535.597	-91.46
535.855	0.54
536.114	-63.46
536.372	-163.46
536.631	-116.46
536.889	-3.46
537.147	-40.46
537.406	-227.46
537.664	-116.46
537.923	-48.46
538.181	-50.46
538.439	-179.46
538.698	-35.46
538.956	-42.46
539.214	-87.46
539.473	-121.46
539.731	-75.46
539.989	-28.46
540.248	-85.46
540.506	-143.46
540.764	-136.46
541.022	-36.46
541.281	-10.46
541.539	-124.46
541.797	-184.46
542.055	-45.46
542.314	26.54
542.572	-27.46
542.83	-157.46
543.088	-35.46
543.346	-93.46
543.604	-179.46
543.863	-91.46
544.121	36.54
544.379	-54.46
544.637	-153.46
544.895	-35.46
545.153	82.54
545.411	-76.46
545.67	-258.46
545.928	-203.46
546.186	-57.46
546.444	-11.46
546.702	-92.46
546.96	-58.46
547.218	-6.46
547.476	-76.46
547.734	-161.46
547.992	-92.46
548.25	-12.46
548.508	-88.46
548.766	-101.46
549.024	-99.46
549.282	-84.46
549.54	-71.46
549.798	-93.46
550.056	-108.46
550.314	-10.46
550.572	-49.46
550.83	-198.46
551.088	-84.46
551.346	14.54
551.603	-9.46
551.861	-152.46
552.119	-61.46
552.377	37.54
552.635	-71.46
552.893	-190.46
553.151	-167.46
553.409	-36.46
553.666	-41.46
553.924	-141.46
554.182	-153.46
554.44	1.54
554.698	56.54
554.955	-101.46
555.213	-113.46
555.471	9.54
555.729	-40.46
555.986	-220.46
556.244	-133.46
556.502	71.54
556.76	-47.46
557.017	-118.46
557.275	-62.46
557.533	51.54
557.79	15.54
558.048	-172.46
558.306	-87.46
558.563	5.54
558.821	-111.46
559.079	-129.46
559.336	-109.46
559.594	-63.46
559.852	-138.46
560.109	-174.46
560.367	-59.46
560.624	-16.46
560.882	-88.46
561.14	-122.46
561.397	-2.46
561.655	-74.46
561.912	-59.46
562.17	-167.46
562.427	-105.46
562.685	-37.46
562.942	-39.46
563.2	-168.46
563.457	-87.46
563.715	-42.46
563.972	-25.46
564.23	-211.46
564.487	-200.46
564.745	-62.46
565.002	-25.46
565.26	-129.46
565.517	-131.46
565.774	-60.46
566.032	-61.46
566.289	-126.46
566.547	-115.46
566.804	-5.46
567.061	-38.46
567.319	-163.46
567.576	-70.46
567.833	68.54
568.091	92.54
568.348	-74.46
568.605	-54.46
568.863	9.54
569.12	-8.46
569.377	-135.46
569.635	-134.46
569.892	-84.46
570.149	-113.46
570.406	-224.46
570.664	-170.46
570.921	-28.46
571.178	-118.46
571.435	-112.46
571.693	-85.46
571.95	-16.46
572.207	-84.46
572.464	-108.46
572.721	-19.46
572.979	56.54
573.236	-3.46
573.493	-116.46
573.75	-95.46
574.007	27.54
574.264	-63.46
574.521	-119.46
574.779	-91.46
575.036	-21.46
575.293	-85.46
575.55	-139.46
575.807	-126.46
576.064	-23.46
576.321	-59.46
576.578	-214.46
576.835	-166.46
577.092	53.54
577.349	-19.46
577.606	-227.46
577.863	-149.46
578.12	-30.46
578.377	-37.46
578.634	-243.46
578.891	-153.46
579.148	-53.46
579.405	-118.46
579.662	-202.46
579.919	-105.46
580.176	-70.46
580.433	-58.46
580.69	-121.46
580.947	-110.46
581.204	-28.46
581.461	-60.46
581.717	-153.46
581.974	2.54
582.231	29.54
582.488	-73.46
582.745	-149.46
583.002	-136.46
583.259	5.54
583.515	-40.46
583.772	-193.46
584.029	-146.46
584.286	6.54
584.543	-156.46
584.799	-178.46
585.056	-100.46
585.313	-22.46
585.57	17.54
585.826	-145.46
586.083	-50.46
586.34	141.54
586.597	-57.46
586.853	-221.46
587.11	-179.46
587.367	11.54
587.623	83.54
587.88	-28.46
588.137	-115.46
588.393	-9.46
588.65	-77.46
588.907	-165.46
589.163	-101.46
589.42	-49.46
589.677	-23.46
589.933	-149.46
590.19	-74.46
590.446	40.54
590.703	31.54
590.96	-198.46
591.216	-220.46
591.473	-83.46
591.729	-73.46
591.986	-84.46
592.242	-45.46
592.499	124.54
592.755	-2.46
593.012	-198.46
593.268	-108.46
593.525	-57.46
593.781	-40.46
594.038	-128.46
594.294	-108.46
594.551	-63.46
594.807	-131.46
595.064	-162.46
595.32	-161.46
595.576	-43.46
595.833	18.54
596.089	-105.46
596.346	-34.46
596.602	7.54
596.858	70.54
597.115	-106.46
597.371	-33.46
597.628	-27.46
597.884	-78.46
598.14	-153.46
598.397	-23.46
598.653	69.54
598.909	-45.46
599.166	-188.46
599.422	-127.46
599.678	-17.46
599.934	-56.46
600.191	-188.46
600.447	-125.46
600.703	-72.46
600.959	-84.46
601.216	-211.46
601.472	-188.46
601.728	-73.46
601.984	-99.46
602.241	-206.46
602.497	-111.46
602.753	30.54
603.009	-63.46
603.265	-171.46
603.521	-28.46
603.778	51.54
604.034	-136.46
604.29	-203.46
604.546	-136.46
604.802	-33.46
605.058	-97.46
605.314	-195.46
605.571	-142.46
605.827	-86.46
606.083	-73.46
606.339	-170.46
606.595	-69.46
606.851	19.54
607.107	35.54
607.363	-169.46
607.619	-146.46
607.875	58.54
608.131	20.54
608.387	-234.46
608.643	-150.46
608.899	-65.46
609.155	-79.46
609.411	-102.46
609.667	-83.46
609.923	-61.46
610.179	-103.46
610.435	-269.46
610.691	-181.46
610.947	-23.46
611.203	-111.46
611.459	-157.46
611.714	-61.46
611.97	58.54
612.226	10.54
612.482	-176.46
612.738	-81.46
612.994	126.54
613.25	-22.46
613.505	-155.46
613.761	-121.46
614.017	-41.46
614.273	-67.46
614.529	-130.46
614.785	-179.46
615.04	-65.46
615.296	-49.46
615.552	-129.46
615.808	-86.46
616.063	-8.46
616.319	-26.46
616.575	-149.46
616.831	-97.46
617.086	97.54
617.342	49.54
617.598	-66.46
617.854	-9.46
618.109	56.54
618.365	-127.46
618.621	-197.46
618.876	-79.46
619.132	23.54
619.388	-9.46
619.643	-160.46
619.899	-78.46
620.155	27.54
620.41	14.54
620.666	-125.46
620.921	-73.46
621.177	43.54
621.433	56.54
621.688	-59.46
621.944	-136.46
622.199	-53.46
622.455	-54.46
622.71	-165.46
622.966	-134.46
623.221	-102.46
623.477	-85.46
623.732	-76.46
623.988	-142.46
624.243	-15.46
624.499	-14.46
624.754	-173.46
625.01	-137.46
625.265	-55.46
625.521	30.54
625.776	-85.46
626.032	-53.46
626.287	-16.46
626.543	-90.46
626.798	-145.46
627.053	-98.46
627.309	-21.46
627.564	-87.46
627.82	-87.46
628.075	21.54
628.33	-19.46
628.586	-137.46
628.841	-255.46
629.096	-123.46
629.352	-26.46
629.607	-137.46
629.862	-169.46
630.118	-58.46
630.373	-82.46
630.628	-50.46
630.884	-151.46
631.139	-95.46
631.394	39.54
631.649	-34.46
631.905	-165.46
632.16	-94.46
632.415	76.54
632.67	-50.46
632.926	-180.46
633.181	-175.46
633.436	-29.46
633.691	-91.46
633.946	-226.46
634.202	-197.46
634.457	-17.46
634.712	-91.46
634.967	-186.46
635.222	-217.46
635.477	-105.46
635.733	-98.46
635.988	-203.46
636.243	-168.46
636.498	-26.46
636.753	-55.46
637.008	-164.46
637.263	-75.46
637.518	-42.46
637.773	-72.46
638.028	-116.46
638.283	-88.46
638.539	20.54
638.794	-13.46
639.049	-157.46
639.304	-149.46
639.559	-87.46
639.814	-105.46
640.069	-152.46
640.324	-131.46
640.579	-37.46
640.834	-47.46
641.089	-159.46
641.344	-86.46
641.598	103.54
641.853	-3.46
642.108	-151.46
642.363	-203.46
642.618	-45.46
642.873	-102.46
643.128	-204.46
643.383	-131.46
643.638	-22.46
643.893	24.54
644.148	-42.46
644.402	-137.46
644.657	-23.46
644.912	-87.46
645.167	-113.46
645.422	-59.46
645.677	-60.46
645.931	-12.46
646.186	-21.46
646.441	-81.46
646.696	-81.46
646.951	-91.46
647.205	-130.46
647.46	-109.46
647.715	-74.46
647.97	66.54
648.224	179.54
648.479	-17.46
648.734	83.54
648.989	32.54
649.243	-78.46
649.498	-106.46
649.753	-72.46
650.007	-40.46
650.262	-95.46
650.517	-99.46
650.771	-66.46
651.026	-110.46
651.281	-215.46
651.535	-88.46
651.79	-65.46
652.045	-71.46
652.299	-135.46
652.554	-132.46
652.809	-30.46
653.063	113.54
653.318	4.54
653.572	-97.46
653.827	37.54
654.081	-46.46
654.336	-197.46
654.591	-168.46
654.845	-50.46
655.1	-93.46
655.354	-123.46
655.609	-71.46
655.863	20.54
656.118	-4.46
656.372	-137.46
656.627	-110.46
656.881	-11.46
657.136	-91.46
657.39	-191.46
657.645	-58.46
657.899	81.54
658.153	-29.46
658.408	-125.46
658.662	-73.46
658.917	-33.46
659.171	-116.46
659.426	-199.46
659.68	-131.46
659.934	-39.46
660.189	-50.46
660.443	-157.46
660.697	3.54
660.952	59.54
661.206	-85.46
661.46	-222.46
661.715	-135.46
661.969	-8.46
662.223	-51.46
662.478	-139.46
662.732	-68.46
662.986	-41.46
663.241	-52.46
663.495	-173.46
663.749	-120.46
664.003	6.54
664.258	-56.46
664.512	-123.46
664.766	-78.46
665.02	-25.46
665.275	6.54
665.529	-164.46
665.783	-136.46
666.037	-54.46
666.291	-73.46
666.546	-126.46
666.8	-88.46
667.054	-110.46
667.308	-78.46
667.562	-222.46
667.816	-142.46
668.071	-38.46
668.325	-149.46
668.579	-153.46
668.833	-89.46
669.087	44.54
669.341	-38.46
669.595	-195.46
669.849	-126.46
670.103	-60.46
670.357	-71.46
670.612	-118.46
670.866	-127.46
671.12	-49.46
671.374	-91.46
671.628	-110.46
671.882	-142.46
672.136	-75.46
672.39	-67.46
672.644	-218.46
672.898	-84.46
673.152	77.54
673.406	16.54
673.66	-99.46
673.914	-50.46
674.168	14.54
674.422	-56.46
674.675	-159.46
674.929	-83.46
675.183	36.54
675.437	-31.46
675.691	-86.46
675.945	-47.46
676.199	66.54
676.453	-44.46
676.707	-170.46
676.961	-157.46
677.214	-75.46
677.468	-55.46
677.722	-66.46
677.976	-94.46
678.23	-30.46
678.484	-10.46
678.737	-154.46
678.991	-119.46
679.245	-39.46
679.499	-76.46
679.753	-149.46
680.006	-92.46
680.26	13.54
680.514	13.54
680.768	-143.46
681.021	-62.46
681.275	-40.46
681.529	-39.46
681.783	-91.46
682.036	-87.46
682.29	-104.46
682.544	-57.46
682.797	-99.46
683.051	-146.46
683.305	-72.46
683.559	-69.46
683.812	-60.46
684.066	-75.46
684.32	-17.46
684.573	-67.46
684.827	-67.46
685.08	-34.46
685.334	69.54
685.588	-33.46
685.841	-166.46
686.095	-30.46
686.348	-17.46
686.602	-1.46
686.856	-28.46
687.109	-86.46
687.363	-42.46
687.616	-90.46
687.87	-240.46
688.123	-165.46
688.377	-60.46
688.63	-33.46
688.884	-30.46
689.137	78.54
689.391	73.54
689.644	-102.46
689.898	-199.46
690.151	-171.46
690.405	-38.46
690.658	-58.46
690.912	-113.46
691.165	-119.46
691.419	-66.46
691.672	-25.46
691.926	-111.46
692.179	-98.46
692.432	-35.46
692.686	-81.46
692.939	-204.46
693.193	-159.46
693.446	18.54
693.699	-7.46
693.953	-25.46
694.206	-75.46
694.459	18.54
694.713	44.54
694.966	-113.46
695.219	-130.46
695.473	-48.46
695.726	-133.46
695.979	-178.46
696.233	-78.46
696.486	-11.46
696.739	-46.46
696.992	-158.46
697.246	-14.46
697.499	44.54
697.752	-121.46
698.006	-155.46
698.259	-58.46
698.512	-58.46
698.765	-105.46
699.018	-149.46
699.272	-56.46
699.525	-76.46
699.778	-137.46
700.031	-159.46
700.284	-131.46
700.538	-22.46
700.791	-35.46
701.044	-104.46
701.297	-86.46
701.55	-51.46
701.803	-85.46
702.056	-196.46
702.31	-137.46
702.563	-20.46
702.816	-110.46
703.069	-241.46
703.322	-142.46
703.575	-22.46
703.828	8.54
704.081	-118.46
704.334	-123.46
704.587	-69.46
704.84	-124.46
705.093	-142.46
705.346	-1.46
705.599	-22.46
705.853	-25.46
706.106	9.54
706.359	243.54
706.612	-8.46
706.865	21.54
707.118	-151.46
707.37	-99.46
707.623	7.54
707.876	-34.46
708.129	-59.46
708.382	43.54
708.635	133.54
708.888	-61.46
709.141	-177.46
709.394	-49.46
709.647	39.54
709.9	-74.46
710.153	-209.46
710.406	-101.46
710.658	12.54
710.911	-56.46
711.164	-195.46
711.417	-155.46
711.67	-94.46
711.923	-35.46
712.176	-170.46
712.428	-141.46
712.681	-67.46
712.934	-29.46
713.187	-113.46
713.44	-174.46
713.692	-43.46
713.945	-98.46
714.198	-189.46
714.451	-198.46
714.704	-47.46
714.956	-8.46
715.209	0.54
715.462	-29.46
715.715	-6.46
715.967	-10.46
716.22	-167.46
716.473	-162.46
716.725	10.54
716.978	-56.46
717.231	-69.46
717.484	-22.46
717.736	-101.46
717.989	-159.46
718.242	-217.46
718.494	-108.46
718.747	9.54
718.999	-61.46
719.252	-55.46
719.505	-56.46
719.757	-49.46
720.01	-60.46
720.263	-101.46
720.515	-110.46
720.768	14.54
721.02	-15.46
721.273	-150.46
721.525	-178.46
721.778	-65.46
722.031	19.54
722.283	-146.46
722.536	-131.46
722.788	-61.46
723.041	-97.46
723.293	-162.46
723.546	-155.46
723.798	-49.46
724.051	10.54
724.303	-39.46
724.556	-39.46
724.808	102.54
725.061	14.54
725.313	-109.46
725.566	-85.46
725.818	-52.46
726.071	-73.46
726.323	-199.46
726.575	-100.46
726.828	43.54
727.08	37.54
727.333	-130.46
727.585	-117.46
727.837	-62.46
728.09	-53.46
728.342	-178.46
728.595	-81.46
728.847	79.54
729.099	-147.46
729.352	-169.46
729.604	-149.46
729.856	-57.46
730.109	-73.46
730.361	-167.46
730.613	-82.46
730.866	17.54
731.118	-112.46
731.37	-190.46
731.622	-155.46
731.875	-70.46
732.127	-29.46
732.379	-74.46
732.631	-0.46
732.884	-22.46
733.136	-95.46
733.388	-188.46
733.64	-112.46
733.893	28.54
734.145	-31.46
734.397	-165.46
734.649	-174.46
734.901	-70.46
735.154	-121.46
735.406	-213.46
735.658	-140.46
735.91	-5.46
736.162	-53.46
736.414	-181.46
736.667	-93.46
736.919	-49.46
737.171	-130.46
737.423	-157.46
737.675	-113.46
737.927	11.54
738.179	-54.46
738.431	-91.46
738.684	-154.46
738.936	-81.46
739.188	-15.46
739.44	-199.46
739.692	-195.46
739.944	-157.46
740.196	-127.46
740.448	-158.46
740.7	-171.46
740.952	-95.46
741.204	-94.46
741.456	-200.46
741.708	-126.46
741.96	-111.46
742.212	-46.46
742.464	-57.46
742.716	-191.46
742.968	-97.46
743.22	-138.46
743.472	-227.46
743.724	-148.46
743.976	-0.46
744.228	0.54
744.48	-223.46
744.732	-201.46
744.983	-25.46
745.235	-57.46
745.487	-133.46
745.739	-99.46
745.991	-116.46
746.243	-46.46
746.495	-190.46
746.747	-173.46
746.999	-79.46
747.25	-89.46
747.502	-126.46
747.754	-30.46
748.006	-94.46
748.258	18.54
748.51	33.54
748.761	-125.46
749.013	-59.46
749.265	18.54
749.517	-4.46
749.768	37.54
750.02	64.54
750.272	-16.46
750.524	-175.46
750.776	-220.46
751.027	-14.46
751.279	28.54
751.531	-178.46
751.782	-94.46
752.034	13.54
752.286	-101.46
752.538	-218.46
752.789	-115.46
753.041	-16.46
753.293	-49.46
753.544	-124.46
753.796	-128.46
754.048	-24.46
754.299	-25.46
754.551	-86.46
754.803	-132.46
755.054	-103.46
755.306	-45.46
755.558	-152.46
755.809	-125.46
756.061	33.54
756.312	-80.46
756.564	-113.46
756.816	-85.46
757.067	-71.46
757.319	-98.46
757.57	-129.46
757.822	-59.46
758.073	29.54
758.325	-27.46
758.577	-181.46
758.828	-150.46
759.08	60.54
759.331	57.54
759.583	-140.46
759.834	-35.46
760.086	-64.46
760.337	-98.46
760.589	-151.46
760.84	-132.46
761.092	-61.46
761.343	-78.46
761.595	-223.46
761.846	-85.46
762.097	-44.46
762.349	-90.46
762.6	-233.46
762.852	-84.46
763.103	48.54
763.355	-95.46
763.606	-185.46
763.857	-31.46
764.109	66.54
764.36	-39.46
764.612	-134.46
764.863	-56.46
765.114	-24.46
765.366	-140.46
765.617	-217.46
765.868	-154.46
766.12	9.54
766.371	11.54
766.622	-175.46
766.874	-119.46
767.125	6.54
767.376	-105.46
767.628	-180.46
767.879	-130.46
768.13	-16.46
768.381	-27.46
768.633	-94.46
768.884	-95.46
769.135	4.54
769.386	-22.46
769.638	-94.46
769.889	-84.46
770.14	-40.46
770.391	-133.46
770.643	-200.46
770.894	-181.46
771.145	-62.46
771.396	-124.46
771.647	-211.46
771.899	-89.46
772.15	-22.46
772.401	-67.46
772.652	-201.46
772.903	-157.46
773.154	182.54
773.406	436.54
773.657	-120.46
773.908	-150.46
774.159	-59.46
774.41	-39.46
774.661	-153.46
774.912	-115.46
775.163	53.54
775.414	57.54
775.666	-186.46
775.917	-164.46
776.168	-111.46
776.419	-101.46
776.67	-202.46
776.921	-180.46
777.172	-88.46
777.423	-66.46
777.674	-28.46
777.925	-60.46
778.176	-117.46
778.427	-108.46
778.678	-182.46
778.929	-158.46
779.18	-66.46
779.431	-123.46
779.682	-117.46
779.933	-92.46
780.184	-60.46
780.435	-91.46
780.686	-121.46
780.937	-73.46
781.188	-31.46
781.439	64.54
781.69	-3.46
781.941	-63.46
782.191	-59.46
782.442	-82.46
782.693	-167.46
782.944	-179.46
783.195	-83.46
783.446	-65.46
783.697	-61.46
783.948	-157.46
784.199	-121.46
784.449	-134.46
784.7	-121.46
784.951	-104.46
785.202	41.54
785.453	-7.46
785.704	-191.46
785.954	-204.46
786.205	-114.46
786.456	-166.46
786.707	-247.46
786.958	-190.46
787.208	-78.46
787.459	-134.46
787.71	-106.46
787.961	-125.46
788.211	-74.46
788.462	-89.46
788.713	-146.46
788.964	-152.46
789.214	-46.46
789.465	-39.46
789.716	-73.46
789.967	-90.46
790.217	-118.46
790.468	-149.46
790.719	-197.46
790.969	-153.46
791.22	-114.46
791.471	-43.46
791.721	-5.46
791.972	-121.46
792.223	-38.46
792.473	-102.46
792.724	-138.46
792.975	-155.46
793.225	-73.46
793.476	-111.46
793.726	-173.46
793.977	-76.46
794.228	45.54
794.478	-78.46
794.729	-158.46
794.979	-59.46
795.23	-13.46
795.481	-67.46
795.731	-176.46
795.982	-116.46
796.232	-122.46
796.483	-156.46
796.733	-207.46
796.984	-144.46
797.234	-69.46
797.485	-60.46
797.735	-212.46
797.986	-163.46
798.236	-23.46
798.487	-95.46
798.737	-99.46
798.988	-16.46
799.238	16.54
799.489	-92.46
799.739	-179.46
799.99	-108.46
800.24	-10.46
800.491	40.54
800.741	-118.46
800.991	-170.46
801.242	-98.46
801.492	-73.46
801.743	-129.46
801.993	102.54
802.244	314.54
802.494	-34.46
802.744	-92.46
802.995	-79.46
803.245	-56.46
803.495	-99.46
803.746	-159.46
803.996	-56.46
804.246	-59.46
804.497	-37.46
804.747	-182.46
804.997	-118.46
805.248	-97.46
805.498	-131.46
805.748	-103.46
805.999	-196.46
806.249	-121.46
806.499	-125.46
806.75	-226.46
807	-197.46
807.25	-60.46
807.5	-113.46
807.751	-126.46
808.001	-65.46
808.251	-59.46
808.501	9.54
808.752	-3.46
809.002	-57.46
809.252	-63.46
809.502	-107.46
809.752	-157.46
810.003	-188.46
810.253	-114.46
810.503	-68.46
810.753	-41.46
811.003	-33.46
811.254	-11.46
811.504	-69.46
811.754	-108.46
812.004	-100.46
812.254	139.54
812.504	-44.46
812.754	-129.46
813.005	-57.46
813.255	18.54
813.505	-52.46
813.755	-163.46
814.005	-87.46
814.255	-63.46
814.505	-93.46
814.755	-200.46
815.005	-168.46
815.255	-44.46
815.505	-100.46
815.756	-57.46
816.006	-71.46
816.256	-120.46
816.506	-165.46
816.756	-216.46
817.006	-181.46
817.256	-66.46
817.506	-68.46
817.756	-126.46
818.006	-97.46
818.256	-38.46
818.506	-78.46
818.756	-199.46
819.006	-144.46
819.256	-53.46
819.506	-104.46
819.756	-180.46
820.006	-91.46
820.255	-34.46
820.505	-62.46
820.755	-183.46
821.005	-137.46
821.255	-11.46
821.505	-62.46
821.755	-139.46
822.005	-60.46
822.255	-4.46
822.505	-97.46
822.755	-67.46
823.004	-198.46
823.254	-164.46
823.504	-85.46
823.754	-77.46
824.004	-154.46
824.254	-39.46
824.504	-41.46
824.753	-12.46
825.003	-21.46
825.253	-4.46
825.503	-114.46
825.753	-138.46
826.002	-69.46
826.252	134.54
826.502	-74.46
826.752	-155.46
827.002	-125.46
827.251	-23.46
827.501	-103.46
827.751	-161.46
828.001	-104.46
828.25	-11.46
828.5	-168.46
828.75	-197.46
829	-97.46
829.249	15.54
829.499	-130.46
829.749	-141.46
829.998	-74.46
830.248	-36.46
830.498	-158.46
830.748	-162.46
830.997	-84.46
831.247	-9.46
831.497	-18.46
831.746	-119.46
831.996	-13.46
832.246	91.54
832.495	98.54
832.745	-161.46
832.994	-143.46
833.244	12.54
833.494	-80.46
833.743	-182.46
833.993	-114.46
834.243	-45.46
834.492	-59.46
834.742	-89.46
834.991	-110.46
835.241	73.54
835.49	-82.46
835.74	-205.46
835.99	-128.46
836.239	-20.46
836.489	7.54
836.738	-111.46
836.988	-222.46
837.237	-107.46
837.487	13.54
837.736	-88.46
837.986	-120.46
838.235	-52.46
838.485	-114.46
838.734	-148.46
838.984	-42.46
839.233	-56.46
839.483	-158.46
839.732	-202.46
839.982	-108.46
840.231	-54.46
840.481	-45.46
840.73	-148.46
840.979	-83.46
841.229	-79.46
841.478	-97.46
841.728	-214.46
841.977	-235.46
842.227	-164.46
842.476	-182.46
842.725	-217.46
842.975	-153.46
843.224	-44.46
843.474	1.54
843.723	-124.46
843.972	-118.46
844.222	-69.46
844.471	-22.46
844.72	-125.46
844.97	-127.46
845.219	-26.46
845.468	-32.46
845.718	-100.46
845.967	-73.46
846.216	-27.46
846.466	18.54
846.715	-117.46
846.964	-101.46
847.214	-110.46
847.463	-157.46
847.712	-124.46
847.961	-152.46
848.211	-63.46
848.46	-70.46
848.709	-126.46
848.958	-163.46
849.208	-92.46
849.457	-99.46
849.706	-74.46
849.955	-110.46
850.205	-133.46
850.454	21.54
850.703	72.54
850.952	-14.46
851.201	13.54
851.451	-57.46
851.7	-56.46
851.949	-173.46
852.198	-75.46
852.447	-90.46
852.696	-159.46
852.946	-127.46
853.195	-19.46
853.444	-21.46
853.693	-195.46
853.942	-201.46
854.191	-98.46
854.44	-61.46
854.689	-116.46
854.939	-137.46
855.188	-163.46
855.437	-137.46
855.686	-145.46
855.935	-102.46
856.184	-45.46
856.433	-2.46
856.682	-66.46
856.931	-67.46
857.18	-30.46
857.429	-120.46
857.678	-160.46
857.927	-116.46
858.176	-82.46
858.425	-124.46
858.674	-198.46
858.924	-99.46
859.173	-89.46
859.422	-67.46
859.671	-199.46
859.92	-137.46
860.169	-77.46
860.417	-46.46
860.666	-104.46
860.915	-141.46
861.164	-100.46
861.413	-141.46
861.662	-203.46
861.911	-156.46
862.16	-19.46
862.409	-63.46
862.658	-204.46
862.907	-165.46
863.156	-54.46
863.405	-67.46
863.654	-168.46
863.903	-203.46
864.151	-114.46
864.4	-80.46
864.649	-124.46
864.898	-80.46
865.147	-47.46
865.396	-15.46
865.645	-145.46
865.894	-106.46
866.142	18.54
866.391	-66.46
866.64	-191.46
866.889	-84.46
867.138	77.54
867.387	-37.46
867.635	-151.46
867.884	-90.46
868.133	8.54
868.382	-67.46
868.631	-200.46
868.879	-183.46
869.128	-69.46
869.377	-67.46
869.626	-109.46
869.874	-126.46
870.123	-18.46
870.372	-51.46
870.621	-197.46
870.869	-160.46
871.118	-41.46
871.367	-52.46
871.616	-158.46
871.864	-73.46
872.113	-41.46
872.362	-66.46
872.61	-119.46
872.859	-71.46
873.108	-6.46
873.357	-95.46
873.605	-193.46
873.854	-162.46
874.103	-126.46
874.351	-126.46
874.6	-136.46
874.848	-108.46
875.097	-53.46
875.346	-46.46
875.594	-161.46
875.843	-57.46
876.092	84.54
876.34	-35.46
876.589	-165.46
876.837	-232.46
877.086	-142.46
877.335	-75.46
877.583	-107.46
877.832	-62.46
878.08	48.54
878.329	-59.46
878.578	-152.46
878.826	-122.46
879.075	-21.46
879.323	-25.46
879.572	-106.46
879.82	22.54
880.069	-33.46
880.317	-22.46
880.566	-144.46
880.814	-45.46
881.063	68.54
881.311	-37.46
881.56	1.54
881.808	-104.46
882.057	-14.46
882.305	-35.46
882.554	-38.46
882.802	-141.46
883.051	-93.46
883.299	-67.46
883.548	-102.46
883.796	-24.46
884.045	-30.46
884.293	-98.46
884.541	-210.46
884.79	-216.46
885.038	-123.46
885.287	-110.46
885.535	-77.46
885.783	-60.46
886.032	-116.46
886.28	-159.46
886.529	-187.46
886.777	-123.46
887.025	39.54
887.274	-77.46
887.522	-150.46
887.77	-127.46
888.019	-119.46
888.267	-133.46
888.516	-222.46
888.764	-173.46
889.012	-95.46
889.261	-92.46
889.509	-159.46
889.757	-138.46
890.005	-99.46
890.254	-158.46
890.502	-126.46
890.75	68.54
890.999	68.54
891.247	-28.46
891.495	-59.46
891.743	-71.46
891.992	67.54
892.24	-59.46
892.488	-179.46
892.737	-143.46
892.985	-45.46
893.233	-59.46
893.481	-130.46
893.729	-131.46
893.978	26.54
894.226	24.54
894.474	-121.46
894.722	-133.46
894.97	-99.46
895.219	-118.46
895.467	-88.46
895.715	-47.46
895.963	-71.46
896.211	-131.46
896.46	-215.46
896.708	-86.46
896.956	-13.46
897.204	58.54
897.452	-39.46
897.7	-110.46
897.948	-39.46
898.197	-84.46
898.445	-133.46
898.693	-107.46
898.941	-46.46
899.189	-66.46
899.437	-122.46
899.685	-11.46
899.933	-74.46
900.181	-81.46
900.43	-146.46
900.678	-112.46
900.926	-50.46
901.174	-83.46
901.422	-127.46
901.67	-113.46
901.918	-43.46
902.166	-80.46
902.414	-213.46
902.662	-151.46
902.91	-38.46
903.158	-67.46
903.406	-128.46
903.654	-111.46
903.902	-75.46
904.15	-96.46
904.398	-206.46
904.646	-114.46
904.894	-20.46
905.142	-0.46
905.39	-48.46
905.638	-130.46
905.886	-90.46
906.134	-91.46
906.382	-106.46
906.63	-142.46
906.878	-62.46
907.126	-84.46
907.374	-158.46
907.622	-131.46
907.869	-6.46
908.117	-30.46
908.365	-105.46
908.613	-137.46
908.861	-125.46
909.109	-169.46
909.357	-189.46
909.605	-104.46
909.853	-20.46
910.1	-95.46
910.348	-259.46
910.596	-207.46
910.844	-26.46
911.092	1.54
911.34	-100.46
911.588	-93.46
911.835	-39.46
912.083	-43.46
912.331	-60.46
912.579	-28.46
912.827	138.54
913.075	6.54
913.322	-143.46
913.57	-142.46
913.818	11.54
914.066	-57.46
914.313	-150.46
914.561	-57.46
914.809	-37.46
915.057	-87.46
915.305	-99.46
915.552	-114.46
915.8	-6.46
916.048	-100.46
916.296	-166.46
916.543	-52.46
916.791	22.54
917.039	-48.46
917.286	-172.46
917.534	-132.46
917.782	-7.46
918.03	-94.46
918.277	-199.46
918.525	-185.46
918.773	-70.46
919.02	-90.46
919.268	-151.46
919.516	-115.46
919.763	-118.46
920.011	-105.46
920.259	-202.46
920.506	-105.46
920.754	-15.46
921.002	-29.46
921.249	-74.46
921.497	-113.46
921.745	-76.46
921.992	-57.46
922.24	-195.46
922.487	-70.46
922.735	95.54
922.983	4.54
923.23	-85.46
923.478	-125.46
923.725	-42.46
923.973	-34.46
924.221	-63.46
924.468	-1.46
924.716	-37.46
924.963	-83.46
925.211	-131.46
925.458	-64.46
925.706	49.54
925.953	81.54
926.201	-107.46
926.448	-126.46
926.696	-14.46
926.944	-30.46
927.191	-118.46
927.439	-110.46
927.686	-78.46
927.934	-65.46
928.181	-173.46
928.429	-161.46
928.676	-84.46
928.923	-144.46
929.171	-181.46
929.418	-39.46
929.666	4.54
929.913	-7.46
930.161	-200.46
930.408	-179.46
930.656	-68.46
930.903	-20.46
931.151	-151.46
931.398	-109.46
931.645	3.54
931.893	-95.46
932.14	-123.46
932.388	-97.46
932.635	51.54
932.882	84.54
933.13	-23.46
933.377	-117.46
933.625	-26.46
933.872	-87.46
934.119	-167.46
934.367	-115.46
934.614	-107.46
934.861	-123.46
935.109	-115.46
935.356	-80.46
935.603	-21.46
935.851	-77.46
936.098	-141.46
936.345	-47.46
936.593	-6.46
936.84	-59.46
937.087	-180.46
937.335	-111.46
937.582	-47.46
937.829	-56.46
938.077	-79.46
938.324	-97.46
938.571	-29.46
938.818	-92.46
939.066	-147.46
939.313	-171.46
939.56	-37.46
939.807	-17.46
940.055	-145.46
940.302	-124.46
940.549	53.54
940.796	-17.46
941.044	-92.46
941.291	-63.46
941.538	91.54
941.785	-35.46
942.033	-102.46
942.28	-40.46
942.527	-11.46
942.774	-37.46
943.021	-179.46
943.269	-143.46
943.516	-32.46
943.763	-38.46
944.01	-118.46
944.257	-19.46
944.504	49.54
944.752	6.54
944.999	-69.46
945.246	-133.46
945.493	-37.46
945.74	-54.46
945.987	-133.46
946.234	-53.46
946.482	22.54
946.729	-93.46
946.976	-142.46
947.223	-114.46
947.47	36.54
947.717	6.54
947.964	6.54
948.211	-30.46
948.458	34.54
948.705	-36.46
948.952	-147.46
949.2	-71.46
949.447	52.54
949.694	38.54
949.941	-110.46
950.188	-126.46
950.435	-93.46
950.682	-60.46
950.929	-184.46
951.176	-126.46
951.423	20.54
951.67	-15.46
951.917	-56.46
952.164	-44.46
952.411	16.54
952.658	78.54
952.905	-70.46
953.152	-136.46
953.399	-11.46
953.646	-20.46
953.893	-131.46
954.14	-99.46
954.387	-59.46
954.634	-72.46
954.881	-120.46
955.128	-57.46
955.375	-66.46
955.622	-60.46
955.869	-61.46
956.115	-100.46
956.362	-6.46
956.609	-28.46
956.856	-118.46
957.103	-123.46
957.35	-14.46
957.597	-13.46
957.844	-106.46
958.091	-93.46
958.338	-1.46
958.585	-50.46
958.831	-212.46
959.078	-144.46
959.325	10.54
959.572	-95.46
959.819	-182.46
960.066	-211.46
960.313	-69.46
960.559	-90.46
960.806	-210.46
961.053	-164.46
961.3	1.54
961.547	30.54
961.794	-176.46
962.04	-20.46
962.287	10.54
962.534	-131.46
962.781	-139.46
963.028	-66.46
963.274	35.54
963.521	-66.46
963.768	-138.46
964.015	-94.46
964.262	52.54
964.508	-90.46
964.755	-169.46
965.002	-152.46
965.249	-99.46
965.495	-161.46
965.742	-183.46
965.989	-162.46
966.236	-24.46
966.482	-94.46
966.729	-147.46
966.976	-179.46
967.222	-107.46
967.469	-104.46
967.716	-162.46
967.963	-162.46
968.209	-72.46
968.456	-116.46
968.703	-203.46
968.949	-101.46
969.196	66.54
969.443	76.54
969.689	-173.46
969.936	-195.46
970.183	-87.46
970.429	-137.46
970.676	-181.46
970.923	-118.46
971.169	-46.46
971.416	-106.46
971.663	-148.46
971.909	-105.46
972.156	-24.46
972.402	-47.46
972.649	-129.46
972.896	-81.46
973.142	-56.46
973.389	-36.46
973.635	-137.46
973.882	-33.46
974.129	34.54
974.375	-71.46
974.622	-156.46
974.868	-154.46
975.115	-70.46
975.361	-125.46
975.608	-156.46
975.855	-14.46
976.101	11.54
976.348	-71.46
976.594	-135.46
976.841	-74.46
977.087	-65.46
977.334	-45.46
977.58	-174.46
977.827	-176.46
978.073	-24.46
978.32	-47.46
978.566	-190.46
978.813	-115.46
979.059	-69.46
979.306	-73.46
979.552	-161.46
979.799	-108.46
980.045	-104.46
980.292	-81.46
980.538	-154.46
980.785	-167.46
981.031	-125.46
981.278	-141.46
981.524	-190.46
981.771	-42.46
982.017	71.54
982.263	-9.46
982.51	-169.46
982.756	-92.46
983.003	-19.46
983.249	-71.46
983.495	-157.46
983.742	-160.46
983.988	-89.46
984.235	-63.46
984.481	-162.46
984.727	-158.46
984.974	-18.46
985.22	-39.46
985.467	-109.46
985.713	-112.46
985.959	-0.46
986.206	-28.46
986.452	-102.46
986.698	-68.46
986.945	-56.46
987.191	-15.46
987.437	-7.46
987.684	-47.46
987.93	106.54
988.176	11.54
988.423	-173.46
988.669	-97.46
988.915	72.54
989.162	-80.46
989.408	-187.46
989.654	-115.46
989.901	-78.46
990.147	-79.46
990.393	-75.46
990.639	-16.46
990.886	18.54
991.132	61.54
991.378	-0.46
991.625	117.54
991.871	71.54
992.117	1.54
992.363	-52.46
992.61	-42.46
992.856	72.54
993.102	-73.46
993.348	-145.46
993.594	-121.46
993.841	-58.46
994.087	76.54
994.333	-52.46
994.579	-87.46
994.826	-43.46
995.072	-43.46
995.318	-222.46
995.564	-163.46
995.81	-36.46
996.057	-70.46
996.303	-188.46
996.549	-158.46
996.795	-67.46
997.041	-76.46
997.287	-113.46
997.534	-113.46
997.78	-63.46
998.026	-41.46
998.272	-153.46
998.518	-166.46
998.764	-18.46
999.01	-2.46
999.256	-97.46
999.503	-132.46
999.749	-121.46
999.995	-159.46
1000.241	-174.46
1000.487	-97.46
1000.733	-44.46
1000.979	-89.46
1001.225	-116.46
1001.471	-65.46
1001.718	-24.46
1001.964	35.54
1002.21	-143.46
1002.456	-114.46
1002.702	38.54
1002.948	-57.46
1003.194	-137.46
1003.44	-152.46
1003.686	-65.46
1003.932	-114.46
1004.178	-157.46
1004.424	-114.46
1004.67	34.54
1004.916	14.54
1005.162	-78.46
1005.408	-140.46
1005.654	-3.46
1005.9	-160.46
1006.146	-204.46
1006.392	-133.46
1006.638	-37.46
1006.884	-81.46
1007.13	-156.46
1007.376	-175.46
1007.622	-3.46
1007.868	24.54
1008.114	-109.46
1008.36	-52.46
1008.606	-23.46
1008.852	-5.46
1009.098	-67.46
1009.344	-24.46
1009.59	-46.46
1009.836	-172.46
1010.082	-238.46
1010.328	-141.46
1010.574	-57.46
1010.82	-141.46
1011.065	-221.46
1011.311	-196.46
1011.557	-95.46
1011.803	-116.46
1012.049	-167.46
1012.295	-119.46
1012.541	-94.46
1012.787	-88.46
1013.033	-205.46
1013.278	-219.46
1013.524	-85.46
1013.77	-3.46
1014.016	-114.46
1014.262	-113.46
1014.508	-1.46
1014.754	-155.46
1015	-177.46
1015.245	-4.46
1015.491	10.54
1015.737	-26.46
1015.983	-151.46
1016.229	-179.46
1016.475	-71.46
1016.72	42.54
1016.966	78.54
1017.212	-32.46
1017.458	41.54
1017.704	-39.46
1017.949	-178.46
1018.195	-3.46
1018.441	93.54
1018.687	43.54
1018.933	-109.46
1019.178	-125.46
1019.424	32.54
1019.67	50.54
1019.916	-141.46
1020.161	-102.46
1020.407	-35.46
1020.653	-86.46
1020.899	-170.46
1021.144	-97.46
1021.39	-15.46
1021.636	-124.46
1021.882	-205.46
1022.127	-88.46
1022.373	52.54
1022.619	-8.46
1022.865	-112.46
1023.11	-98.46
1023.356	18.54
1023.602	-55.46
1023.847	-128.46
1024.093	-69.46
1024.339	-94.46
1024.584	-101.46
1024.83	-135.46
1025.076	-122.46
1025.321	16.54
1025.567	-23.46
1025.813	-132.46
1026.058	-53.46
1026.304	-5.46
1026.55	-88.46
1026.795	-110.46
1027.041	-93.46
1027.287	-23.46
1027.532	-7.46
1027.778	-48.46
1028.024	-75.46
1028.269	-34.46
1028.515	-124.46
1028.76	-176.46
1029.006	-100.46
1029.252	16.54
1029.497	-58.46
1029.743	-78.46
1029.989	-134.46
1030.234	-12.46
1030.48	71.54
1030.725	-128.46
1030.971	-100.46
1031.216	39.54
1031.462	-52.46
1031.708	-190.46
1031.953	-155.46
1032.199	-63.46
1032.444	-36.46
1032.69	-94.46
1032.935	-98.46
1033.181	32.54
1033.426	-81.46
1033.672	-234.46
1033.918	-182.46
1034.163	-69.46
1034.409	-58.46
1034.654	-117.46
1034.9	-40.46
1035.145	6.54
1035.391	-66.46
1035.636	-175.46
1035.882	-100.46
1036.127	-104.46
1036.373	-122.46
1036.618	-208.46
1036.864	-99.46
1037.109	23.54
1037.355	-82.46
1037.6	-137.46
1037.845	-105.46
1038.091	83.54
1038.336	42.54
1038.582	49.54
1038.827	132.54
1039.073	-15.46
1039.318	-120.46
1039.564	-214.46
1039.809	-130.46
1040.055	44.54
1040.3	46.54
1040.545	-115.46
1040.791	-129.46
1041.036	-48.46
1041.282	-39.46
1041.527	23.54
1041.772	-156.46
1042.018	-79.46
1042.263	-35.46
1042.509	-200.46
1042.754	-155.46
1042.999	-24.46
1043.245	-57.46
1043.49	-234.46
1043.736	-156.46
1043.981	-60.46
1044.226	-48.46
1044.472	-82.46
1044.717	-74.46
1044.962	30.54
1045.208	-32.46
1045.453	-255.46
1045.698	-181.46
1045.944	17.54
1046.189	-13.46
1046.434	-122.46
1046.68	-105.46
1046.925	83.54
1047.17	-68.46
1047.416	-246.46
1047.661	-136.46
1047.906	0.54
1048.152	-23.46
1048.397	-106.46
1048.642	-118.46
1048.887	54.54
1049.133	58.54
1049.378	-108.46
1049.623	-123.46
1049.869	-1.46
1050.114	-66.46
1050.359	-143.46
1050.604	-70.46
1050.85	87.54
1051.095	-48.46
1051.34	-152.46
1051.585	-72.46
1051.831	110.54
1052.076	-43.46
1052.321	-256.46
1052.566	-149.46
1052.812	52.54
1053.057	-33.46
1053.302	-121.46
1053.547	-41.46
1053.792	12.54
1054.038	-1.46
1054.283	-187.46
1054.528	-86.46
1054.773	-30.46
1055.018	-38.46
1055.264	-150.46
1055.509	-173.46
1055.754	-42.46
1055.999	-118.46
1056.244	-198.46
1056.49	-118.46
1056.735	-31.46
1056.98	-75.46
1057.225	-176.46
1057.47	4.54
1057.715	-53.46
1057.96	-135.46
1058.206	-182.46
1058.451	-62.46
1058.696	68.54
1058.941	4.54
1059.186	-171.46
1059.431	-151.46
1059.676	36.54
1059.922	-16.46
1060.167	72.54
1060.412	232.54
1060.657	16.54
1060.902	-55.46
1061.147	-225.46
1061.392	-135.46
1061.637	5.54
1061.882	-63.46
1062.127	-211.46
1062.373	-191.46
1062.618	70.54
1062.863	92.54
1063.108	-93.46
1063.353	-155.46
1063.598	-67.46
1063.843	-78.46
1064.088	-162.46
1064.333	-153.46
1064.578	1.54
1064.823	3.54
1065.068	-231.46
1065.313	-148.46
1065.558	5.54
1065.803	14.54
1066.048	-175.46
1066.293	-178.46
1066.538	25.54
1066.783	-33.46
1067.028	-220.46
1067.273	-187.46
1067.518	-1.46
1067.763	-71.46
1068.008	-230.46
1068.253	-163.46
1068.498	17.54
1068.743	-39.46
1068.988	-198.46
1069.233	-170.46
1069.478	39.54
1069.723	100.54
1069.968	-105.46
1070.213	-61.46
1070.458	50.54
1070.703	-47.46
1070.948	-223.46
1071.193	-119.46
1071.438	20.54
1071.683	51.54
1071.928	-84.46
1072.173	-102.46
1072.418	-23.46
1072.663	-66.46
1072.908	-199.46
1073.152	-121.46
1073.397	52.54
1073.642	-68.46
1073.887	-110.46
1074.132	6.54
1074.377	-14.46
1074.622	-50.46
1074.867	-165.46
1075.112	-90.46
1075.357	89.54
1075.601	-60.46
1075.846	-121.46
1076.091	-21.46
1076.336	27.54
1076.581	-108.46
1076.826	-206.46
1077.071	-110.46
1077.315	145.54
1077.56	78.54
1077.805	-147.46
1078.05	-111.46
1078.295	-58.46
1078.54	-77.46
1078.785	-207.46
1079.029	-149.46
1079.274	33.54
1079.519	-97.46
1079.764	-194.46
1080.009	-76.46
1080.253	1.54
1080.498	-106.46
1080.743	-243.46
1080.988	-98.46
1081.233	120.54
1081.478	58.54
1081.722	-137.46
1081.967	-17.46
1082.212	129.54
1082.457	3.54
1082.701	-135.46
1082.946	-106.46
1083.191	19.54
1083.436	-86.46
1083.681	-222.46
1083.925	-122.46
1084.17	-21.46
1084.415	-3.46
1084.66	-203.46
1084.904	-124.46
1085.149	-27.46
1085.394	-59.46
1085.639	-233.46
1085.883	-118.46
1086.128	137.54
1086.373	149.54
1086.617	-96.46
1086.862	-150.46
1087.107	-35.46
1087.352	-93.46
1087.596	-162.46
1087.841	-27.46
1088.086	20.54
1088.33	-18.46
1088.575	-249.46
1088.82	-115.46
1089.064	46.54
1089.309	-102.46
1089.554	-209.46
1089.798	-162.46
1090.043	24.54
1090.288	-33.46
1090.533	-222.46
1090.777	-147.46
1091.022	2.54
1091.266	27.54
1091.511	-149.46
1091.756	-65.46
1092	78.54
1092.245	62.54
1092.49	-175.46
1092.734	-123.46
1092.979	79.54
1093.224	-32.46
1093.468	-193.46
1093.713	-133.46
1093.957	-9.46
1094.202	-65.46
1094.447	-237.46
1094.691	-107.46
1094.936	29.54
1095.181	-13.46
1095.425	-189.46
1095.67	-162.46
1095.914	3.54
1096.159	-23.46
1096.403	-168.46
1096.648	-63.46
1096.893	57.54
1097.137	-103.46
1097.382	-245.46
1097.626	-155.46
1097.871	11.54
1098.115	-50.46
1098.36	-217.46
1098.605	-106.46
1098.849	-24.46
1099.094	-114.46
1099.338	-200.46
1099.583	-112.46
1099.827	120.54
1100.072	39.54
1100.316	-165.46
1100.561	-110.46
1100.805	41.54
1101.05	11.54
1101.294	-174.46
1101.539	-164.46
1101.783	-18.46
1102.028	-14.46
1102.273	-157.46
1102.517	-104.46
1102.761	33.54
1103.006	-83.46
1103.25	-282.46
1103.495	-171.46
1103.739	37.54
1103.984	84.54
1104.228	-118.46
1104.473	-41.46
1104.717	36.54
1104.962	-5.46
1105.206	-140.46
1105.451	-152.46
1105.695	24.54
1105.94	-25.46
1106.184	-157.46
1106.429	-107.46
1106.673	-8.46
1106.917	78.54
1107.162	-169.46
1107.406	-31.46
1107.651	129.54
1107.895	-98.46
1108.14	-204.46
1108.384	-100.46
1108.628	117.54
1108.873	109.54
1109.117	-136.46
1109.362	-134.46
1109.606	-38.46
1109.85	-33.46
1110.095	-153.46
1110.339	-98.46
1110.584	90.54
1110.828	36.54
1111.072	-94.46
1111.317	-129.46
1111.561	-13.46
1111.806	-37.46
1112.05	-190.46
1112.294	-88.46
1112.539	18.54
1112.783	-24.46
1113.027	-124.46
1113.272	-126.46
1113.516	-30.46
1113.76	-61.46
1114.005	-161.46
1114.249	-95.46
1114.493	54.54
1114.738	75.54
1114.982	-55.46
1115.226	-99.46
1115.471	-21.46
1115.715	-44.46
1115.959	-210.46
1116.204	-177.46
1116.448	-2.46
1116.692	-93.46
1116.937	-174.46
1117.181	-21.46
1117.425	-31.46
1117.67	-90.46
1117.914	-166.46
1118.158	-100.46
1118.402	139.54
1118.647	50.54
1118.891	-87.46
1119.135	-40.46
1119.38	97.54
1119.624	22.54
1119.868	-135.46
1120.112	-153.46
1120.357	-58.46
1120.601	-122.46
1120.845	-223.46
1121.089	-162.46
1121.334	23.54
