Data from HR4C21111__42__10-14-44-752.txt Node

Date: Mon Feb 22 10:14:44 IST 2021
User: Kapil
Spectrometer: HR4C2111
Trigger mode: 4
Integration Time (sec): 2.300000E0
Scans to average: 1
Electric dark correction enabled: true
Nonlinearity correction enabled: false
Boxcar width: 0
XAxis mode: Wavelengths
Number of Pixels in Spectrum: 3648
>>>>>Begin Spectral Data<<<<<
189.472	-455.54
189.745	-455.54
190.017	-455.54
190.289	-458.54
190.561	-288.54
190.834	-25.54
191.106	-123.54
191.378	16.46
191.65	6.46
191.923	-151.54
192.195	-105.54
192.467	134.46
192.739	109.46
193.011	-25.54
193.284	92.46
193.556	177.46
193.828	-14.54
194.1	-90.54
194.372	-123.54
194.644	48.46
194.916	60.46
195.188	-163.54
195.46	-71.54
195.732	59.46
196.004	-16.54
196.276	-113.54
196.548	-69.54
196.82	71.46
197.092	52.46
197.364	-134.54
197.636	-83.54
197.908	17.46
198.18	-53.54
198.452	-82.54
198.724	-51.54
198.996	27.46
199.268	77.46
199.54	-27.54
199.811	-116.54
200.083	108.46
200.355	41.46
200.627	-186.54
200.899	-68.54
201.171	40.46
201.442	-56.54
201.714	-172.54
201.986	-76.54
202.258	79.46
202.529	113.46
202.801	9.46
203.073	62.46
203.345	167.46
203.616	-8.54
203.888	-157.54
204.16	-154.54
204.431	62.46
204.703	-18.54
204.974	-153.54
205.246	-15.54
205.518	166.46
205.789	-9.54
206.061	-130.54
206.332	-111.54
206.604	16.46
206.876	91.46
207.147	119.46
207.419	-7.54
207.69	106.46
207.962	-42.54
208.233	-175.54
208.505	3.46
208.776	169.46
209.047	88.46
209.319	-134.54
209.59	-100.54
209.862	127.46
210.133	25.46
210.404	-154.54
210.676	-118.54
210.947	65.46
211.219	62.46
211.49	-117.54
211.761	-58.54
212.033	14.46
212.304	-41.54
212.575	-188.54
212.846	-88.54
213.118	23.46
213.389	-62.54
213.66	-100.54
213.931	-33.54
214.203	29.46
214.474	-44.54
214.745	-130.54
215.016	128.46
215.287	429.46
215.559	61.46
215.83	-119.54
216.101	-74.54
216.372	-2.54
216.643	55.46
216.914	-0.54
217.185	-75.54
217.456	156.46
217.727	24.46
217.998	-163.54
218.269	-79.54
218.54	13.46
218.811	-23.54
219.082	-116.54
219.353	-94.54
219.624	-30.54
219.895	-33.54
220.166	-139.54
220.437	-122.54
220.708	93.46
220.979	-5.54
221.25	-138.54
221.521	-87.54
221.792	17.46
222.063	64.46
222.334	25.46
222.604	171.46
222.875	163.46
223.146	78.46
223.417	-181.54
223.688	-35.54
223.958	119.46
224.229	-58.54
224.5	-194.54
224.771	-83.54
225.041	80.46
225.312	42.46
225.583	-120.54
225.854	-75.54
226.124	88.46
226.395	-5.54
226.666	-121.54
226.936	-124.54
227.207	44.46
227.478	-59.54
227.748	-103.54
228.019	47.46
228.289	249.46
228.56	-40.54
228.831	-63.54
229.101	49.46
229.372	57.46
229.642	-20.54
229.913	-160.54
230.183	-123.54
230.454	-6.54
230.724	13.46
230.995	-94.54
231.265	-72.54
231.536	56.46
231.806	36.46
232.076	-121.54
232.347	-117.54
232.617	43.46
232.888	28.46
233.158	-59.54
233.428	-108.54
233.699	-14.54
233.969	-57.54
234.239	-159.54
234.51	-82.54
234.78	38.46
235.05	-30.54
235.321	-134.54
235.591	-94.54
235.861	58.46
236.131	-50.54
236.402	-200.54
236.672	-93.54
236.942	23.46
237.212	39.46
237.483	-65.54
237.753	-2.54
238.023	150.46
238.293	-2.54
238.563	-92.54
238.833	-109.54
239.103	67.46
239.374	-17.54
239.644	-149.54
239.914	-36.54
240.184	129.46
240.454	-13.54
240.724	-169.54
240.994	-69.54
241.264	14.46
241.534	61.46
241.804	-27.54
242.074	-100.54
242.344	-45.54
242.614	-55.54
242.884	-182.54
243.154	-145.54
243.424	22.46
243.694	67.46
243.964	-88.54
244.234	-84.54
244.503	114.46
244.773	3.46
245.043	-215.54
245.313	-147.54
245.583	116.46
245.853	82.46
246.123	-169.54
246.392	-107.54
246.662	-6.54
246.932	-31.54
247.202	-180.54
247.471	-85.54
247.741	246.46
248.011	103.46
248.281	-142.54
248.55	-84.54
248.82	61.46
249.09	-4.54
249.359	-96.54
249.629	-88.54
249.899	42.46
250.168	64.46
250.438	-12.54
250.708	-107.54
250.977	70.46
251.247	52.46
251.516	-126.54
251.786	-59.54
252.055	108.46
252.325	4.46
252.595	-115.54
252.864	-71.54
253.134	46.46
253.403	-40.54
253.673	-189.54
253.942	-115.54
254.212	34.46
254.481	-27.54
254.75	-159.54
255.02	-90.54
255.289	67.46
255.559	-25.54
255.828	-124.54
256.097	-38.54
256.367	26.46
256.636	-63.54
256.906	-148.54
257.175	-15.54
257.444	240.46
257.714	71.46
257.983	-71.54
258.252	-52.54
258.521	7.46
258.791	42.46
259.06	-115.54
259.329	-66.54
259.598	40.46
259.868	-27.54
260.137	-141.54
260.406	-33.54
260.675	83.46
260.944	14.46
261.214	-142.54
261.483	-58.54
261.752	166.46
262.021	12.46
262.29	-180.54
262.559	-155.54
262.828	19.46
263.097	-41.54
263.366	-215.54
263.635	-100.54
263.905	112.46
264.174	-14.54
264.443	-226.54
264.712	-128.54
264.981	26.46
265.25	-56.54
265.519	-152.54
265.788	-159.54
266.057	10.46
266.325	51.46
266.594	-57.54
266.863	-120.54
267.132	15.46
267.401	-8.54
267.67	-202.54
267.939	-148.54
268.208	26.46
268.477	64.46
268.745	-121.54
269.014	-96.54
269.283	140.46
269.552	31.46
269.821	-127.54
270.089	-5.54
270.358	-9.54
270.627	-34.54
270.896	-144.54
271.164	-167.54
271.433	11.46
271.702	86.46
271.971	-156.54
272.239	-155.54
272.508	3.46
272.777	-50.54
273.045	-25.54
273.314	-38.54
273.583	96.46
273.851	-21.54
274.12	-166.54
274.388	-119.54
274.657	-10.54
274.926	-20.54
275.194	-164.54
275.463	-86.54
275.731	20.46
276	167.46
276.268	380.46
276.537	-88.54
276.805	22.46
277.074	27.46
277.342	-182.54
277.611	-110.54
277.879	86.46
278.148	37.46
278.416	-136.54
278.684	-126.54
278.953	-36.54
279.221	-50.54
279.49	-217.54
279.758	-116.54
280.026	-5.54
280.295	-8.54
280.563	-135.54
280.831	1023.46
281.1	2479.46
281.368	234.46
281.636	-107.54
281.904	-130.54
282.173	-18.54
282.441	-51.54
282.709	-94.54
282.977	27.46
283.246	47.46
283.514	-34.54
283.782	-80.54
284.05	15.46
284.318	52.46
284.587	-39.54
284.855	-147.54
285.123	-80.54
285.391	58.46
285.659	36.46
285.927	-169.54
286.195	-71.54
286.463	48.46
286.732	-9.54
287	-130.54
287.268	-68.54
287.536	10.46
287.804	-50.54
288.072	-146.54
288.34	-85.54
288.608	62.46
288.876	-51.54
289.144	-127.54
289.412	-7.54
289.68	49.46
289.948	-31.54
290.215	-120.54
290.483	-124.54
290.751	78.46
291.019	73.46
291.287	-190.54
291.555	-129.54
291.823	20.46
292.091	-36.54
292.358	-78.54
292.626	-23.54
292.894	68.46
293.162	40.46
293.43	-126.54
293.697	-105.54
293.965	31.46
294.233	-33.54
294.501	-177.54
294.768	-87.54
295.036	67.46
295.304	24.46
295.572	-153.54
295.839	-110.54
296.107	94.46
296.375	-0.54
296.642	-150.54
296.91	-152.54
297.178	22.46
297.445	168.46
297.713	92.46
297.98	-97.54
298.248	-45.54
298.516	-52.54
298.783	-134.54
299.051	-128.54
299.318	10.46
299.586	-35.54
299.853	-123.54
300.121	-99.54
300.388	26.46
300.656	-26.54
300.923	-168.54
301.191	-61.54
301.458	40.46
301.726	-15.54
301.993	-150.54
302.26	-88.54
302.528	36.46
302.795	-15.54
303.063	-83.54
303.33	-56.54
303.597	18.46
303.865	0.46
304.132	-140.54
304.399	-135.54
304.667	-31.54
304.934	0.46
305.201	-117.54
305.469	-18.54
305.736	37.46
306.003	23.46
306.27	-73.54
306.538	-114.54
306.805	-19.54
307.072	-39.54
307.339	-101.54
307.606	-55.54
307.874	167.46
308.141	72.46
308.408	-137.54
308.675	-111.54
308.942	-46.54
309.209	-74.54
309.477	-145.54
309.744	-106.54
310.011	27.46
310.278	31.46
310.545	-36.54
310.812	-69.54
311.079	125.46
311.346	193.46
311.613	56.46
311.88	-42.54
312.147	-90.54
312.414	-52.54
312.681	-117.54
312.948	-34.54
313.215	121.46
313.482	74.46
313.749	-103.54
314.016	-194.54
314.283	-66.54
314.55	41.46
314.817	-121.54
315.083	-143.54
315.35	-91.54
315.617	-148.54
315.884	-163.54
316.151	42.46
316.418	141.46
316.684	-35.54
316.951	-214.54
317.218	-128.54
317.485	-23.54
317.752	-81.54
318.018	-136.54
318.285	-23.54
318.552	3.46
318.819	-63.54
319.085	-148.54
319.352	-75.54
319.619	44.46
319.885	-28.54
320.152	-211.54
320.419	-124.54
320.685	12.46
320.952	-34.54
321.219	-92.54
321.485	52.46
321.752	4.46
322.019	-48.54
322.285	16.46
322.552	-24.54
322.818	118.46
323.085	-40.54
323.351	-151.54
323.618	-29.54
323.884	36.46
324.151	-78.54
324.417	-43.54
324.684	-88.54
324.95	-66.54
325.217	-159.54
325.483	-195.54
325.75	-39.54
326.016	-9.54
326.283	-39.54
326.549	-197.54
326.815	-94.54
327.082	94.46
327.348	1.46
327.615	-120.54
327.881	-53.54
328.147	111.46
328.414	120.46
328.68	11.46
328.946	-58.54
329.212	27.46
329.479	-10.54
329.745	-135.54
330.011	-132.54
330.278	-2.54
330.544	-43.54
330.81	-50.54
331.076	-43.54
331.342	-52.54
331.609	-47.54
331.875	-94.54
332.141	-104.54
332.407	7.46
332.673	-19.54
332.94	-26.54
333.206	-48.54
333.472	40.46
333.738	52.46
334.004	-134.54
334.27	-49.54
334.536	-21.54
334.802	-77.54
335.068	-137.54
335.334	-10.54
335.6	22.46
335.866	-49.54
336.132	-172.54
336.398	-105.54
336.664	-37.54
336.93	-60.54
337.196	-103.54
337.462	-23.54
337.728	23.46
337.994	-51.54
338.26	-117.54
338.526	-54.54
338.792	-62.54
339.058	-63.54
339.324	-155.54
339.59	-26.54
339.856	47.46
340.121	-75.54
340.387	-134.54
340.653	60.46
340.919	119.46
341.185	35.46
341.45	-99.54
341.716	7.46
341.982	86.46
342.248	-87.54
342.514	-103.54
342.779	-23.54
343.045	2.46
343.311	-27.54
343.576	-101.54
343.842	-50.54
344.108	112.46
344.374	5.46
344.639	-122.54
344.905	-100.54
345.171	45.46
345.436	-79.54
345.702	-126.54
345.967	43.46
346.233	75.46
346.499	3.46
346.764	-186.54
347.03	-87.54
347.295	-52.54
347.561	-27.54
347.826	-70.54
348.092	-148.54
348.357	-54.54
348.623	-41.54
348.888	-137.54
349.154	-118.54
349.419	12.46
349.685	-34.54
349.95	-103.54
350.216	-83.54
350.481	16.46
350.747	-65.54
351.012	-188.54
351.277	-125.54
351.543	-4.54
351.808	-56.54
352.074	-209.54
352.339	-162.54
352.604	2.46
352.87	-26.54
353.135	-145.54
353.4	-110.54
353.666	-55.54
353.931	-55.54
354.196	-189.54
354.461	-157.54
354.727	5.46
354.992	-32.54
355.257	-187.54
355.522	-80.54
355.788	-39.54
356.053	24.46
356.318	-131.54
356.583	-157.54
356.848	20.46
357.113	101.46
357.379	-104.54
357.644	-132.54
357.909	47.46
358.174	70.46
358.439	-173.54
358.704	-114.54
358.969	9.46
359.234	13.46
359.499	-178.54
359.765	-92.54
360.03	9.46
360.295	6.46
360.56	-142.54
360.825	-74.54
361.09	129.46
361.355	-71.54
361.62	-118.54
361.885	-79.54
362.15	-88.54
362.415	-68.54
362.679	-154.54
362.944	-3.54
363.209	10.46
363.474	32.46
363.739	-53.54
364.004	-144.54
364.269	-76.54
364.534	-40.54
364.799	-89.54
365.063	-76.54
365.328	24.46
365.593	7.46
365.858	-120.54
366.123	-135.54
366.387	3.46
366.652	-75.54
366.917	-181.54
367.182	-133.54
367.447	15.46
367.711	-30.54
367.976	-89.54
368.241	-16.54
368.505	53.46
368.77	-60.54
369.035	-92.54
369.299	-39.54
369.564	-20.54
369.829	-85.54
370.093	-130.54
370.358	-124.54
370.623	-11.54
370.887	-2.54
371.152	-149.54
371.416	-84.54
371.681	-50.54
371.946	-146.54
372.21	-182.54
372.475	-51.54
372.739	-22.54
373.004	-71.54
373.268	-116.54
373.533	-41.54
373.797	11.46
374.062	-10.54
374.326	-180.54
374.591	-89.54
374.855	-21.54
375.12	-90.54
375.384	-239.54
375.648	-155.54
375.913	-20.54
376.177	-2.54
376.442	-133.54
376.706	-136.54
376.97	0.46
377.235	-40.54
377.499	-90.54
377.763	-94.54
378.028	-105.54
378.292	-54.54
378.556	-127.54
378.821	-190.54
379.085	-117.54
379.349	-175.54
379.614	-253.54
379.878	-129.54
380.142	55.46
380.406	-30.54
380.671	-59.54
380.935	56.46
381.199	168.46
381.463	22.46
381.727	-23.54
381.991	-71.54
382.256	-7.54
382.52	-66.54
382.784	-56.54
383.048	74.46
383.312	-6.54
383.576	-66.54
383.84	-158.54
384.104	-102.54
384.369	-20.54
384.633	-132.54
384.897	-226.54
385.161	-117.54
385.425	-4.54
385.689	-65.54
385.953	-135.54
386.217	-151.54
386.481	-49.54
386.745	-24.54
387.009	-74.54
387.273	-133.54
387.537	-90.54
387.801	-93.54
388.064	-155.54
388.328	-41.54
388.592	1.46
388.856	-67.54
389.12	-142.54
389.384	-71.54
389.648	-22.54
389.912	42.46
390.176	46.46
390.439	119.46
390.703	-55.54
390.967	-78.54
391.231	-178.54
391.495	-134.54
391.758	-67.54
392.022	-60.54
392.286	-183.54
392.55	-156.54
392.813	-47.54
393.077	7.46
393.341	-71.54
393.605	-21.54
393.868	-50.54
394.132	-70.54
394.396	-89.54
394.659	33.46
394.923	-41.54
395.187	-101.54
395.45	-111.54
395.714	-69.54
395.978	-36.54
396.241	-31.54
396.505	-109.54
396.768	-59.54
397.032	1.46
397.295	1.46
397.559	-98.54
397.823	-129.54
398.086	12.46
398.35	-50.54
398.613	-174.54
398.877	-45.54
399.14	79.46
399.404	102.46
399.667	-15.54
399.931	-108.54
400.194	-11.54
400.457	-54.54
400.721	-104.54
400.984	6.46
401.248	-39.54
401.511	-66.54
401.775	-188.54
402.038	-139.54
402.301	75.46
402.565	-2.54
402.828	-197.54
403.091	-121.54
403.355	-18.54
403.618	-11.54
403.881	-22.54
404.145	-71.54
404.408	8.46
404.671	-45.54
404.934	-47.54
405.198	-14.54
405.461	-14.54
405.724	14.46
405.987	-16.54
406.251	19.46
406.514	104.46
406.777	-46.54
407.04	-112.54
407.303	-132.54
407.567	24.46
407.83	74.46
408.093	-133.54
408.356	-38.54
408.619	25.46
408.882	79.46
409.145	-28.54
409.408	-68.54
409.672	21.46
409.935	-44.54
410.198	-167.54
410.461	-81.54
410.724	83.46
410.987	-15.54
411.25	-149.54
411.513	-48.54
411.776	16.46
412.039	-72.54
412.302	-130.54
412.565	-121.54
412.828	-67.54
413.091	-73.54
413.354	-149.54
413.617	-118.54
413.879	-47.54
414.142	-31.54
414.405	-153.54
414.668	-79.54
414.931	38.46
415.194	-11.54
415.457	-143.54
415.72	-57.54
415.983	-15.54
416.245	-10.54
416.508	-109.54
416.771	-148.54
417.034	4.46
417.297	1.46
417.559	-46.54
417.822	-78.54
418.085	7.46
418.348	-7.54
418.61	-154.54
418.873	-136.54
419.136	-90.54
419.399	-110.54
419.661	-84.54
419.924	-104.54
420.187	-18.54
420.449	-59.54
420.712	-115.54
420.975	-162.54
421.237	-54.54
421.5	-45.54
421.762	-12.54
422.025	29.46
422.288	43.46
422.55	-128.54
422.813	-195.54
423.075	-108.54
423.338	-36.54
423.601	-25.54
423.863	-83.54
424.126	-56.54
424.388	62.46
424.651	-15.54
424.913	-76.54
425.176	-84.54
425.438	-54.54
425.701	21.46
425.963	-126.54
426.225	-174.54
426.488	-66.54
426.75	-81.54
427.013	-148.54
427.275	-103.54
427.538	-71.54
427.8	-72.54
428.062	-148.54
428.325	-66.54
428.587	19.46
428.849	-37.54
429.112	-110.54
429.374	-133.54
429.636	-79.54
429.899	13.46
430.161	-99.54
430.423	-67.54
430.686	31.46
430.948	9.46
431.21	-119.54
431.472	-150.54
431.735	-66.54
431.997	-97.54
432.259	-46.54
432.521	-110.54
432.783	-11.54
433.046	-41.54
433.308	-153.54
433.57	-79.54
433.832	128.46
434.094	-77.54
434.356	-194.54
434.618	-111.54
434.881	-33.54
435.143	-79.54
435.405	-69.54
435.667	-49.54
435.929	-46.54
436.191	-72.54
436.453	-147.54
436.715	-63.54
436.977	2.46
437.239	-44.54
437.501	-169.54
437.763	-125.54
438.025	0.46
438.287	-38.54
438.549	-128.54
438.811	-99.54
439.073	-55.54
439.335	-124.54
439.597	-145.54
439.859	-50.54
440.121	62.46
440.383	-121.54
440.645	-128.54
440.907	-67.54
441.168	-7.54
441.43	-71.54
441.692	-169.54
441.954	-128.54
442.216	-66.54
442.478	-85.54
442.74	-183.54
443.001	-77.54
443.263	69.46
443.525	7.46
443.787	-129.54
444.048	-105.54
444.31	-58.54
444.572	-71.54
444.834	-123.54
445.095	-119.54
445.357	15.46
445.619	-30.54
445.881	-218.54
446.142	-136.54
446.404	-65.54
446.666	-52.54
446.927	-119.54
447.189	-10.54
447.451	15.46
447.712	-39.54
447.974	-232.54
448.235	-186.54
448.497	-52.54
448.759	-113.54
449.02	-180.54
449.282	-190.54
449.543	-20.54
449.805	45.46
450.066	-191.54
450.328	-70.54
450.59	117.46
450.851	-29.54
451.113	-71.54
451.374	-148.54
451.636	-22.54
451.897	17.46
452.158	-78.54
452.42	24.46
452.681	52.46
452.943	-110.54
453.204	-178.54
453.466	-167.54
453.727	-100.54
453.988	-67.54
454.25	-172.54
454.511	-203.54
454.773	-77.54
455.034	53.46
455.295	-170.54
455.557	-165.54
455.818	-68.54
456.079	-48.54
456.341	43.46
456.602	11.46
456.863	18.46
457.124	-69.54
457.386	-165.54
457.647	-160.54
457.908	-76.54
458.169	10.46
458.431	-180.54
458.692	-184.54
458.953	-79.54
459.214	-115.54
459.476	-114.54
459.737	-32.54
459.998	24.46
460.259	-77.54
460.52	-187.54
460.781	-124.54
461.043	55.46
461.304	-87.54
461.565	-193.54
461.826	-149.54
462.087	-44.54
462.348	-2.54
462.609	-137.54
462.87	-79.54
463.131	-91.54
463.392	-25.54
463.653	-113.54
463.914	-75.54
464.175	-39.54
464.436	-91.54
464.697	-165.54
464.958	-138.54
465.219	-30.54
465.48	-55.54
465.741	-77.54
466.002	-122.54
466.263	-70.54
466.524	-59.54
466.785	-163.54
467.046	-124.54
467.307	-35.54
467.568	-91.54
467.829	-111.54
468.089	-87.54
468.35	-35.54
468.611	-95.54
468.872	-174.54
469.133	-50.54
469.394	27.46
469.655	48.46
469.915	-120.54
470.176	-194.54
470.437	-144.54
470.698	-67.54
470.958	-134.54
471.219	-188.54
471.48	-104.54
471.741	-120.54
472.001	-179.54
472.262	-129.54
472.523	7.46
472.784	32.46
473.044	-120.54
473.305	-80.54
473.566	28.46
473.826	-8.54
474.087	-128.54
474.348	-99.54
474.608	-43.54
474.869	1.46
475.129	-126.54
475.39	-160.54
475.651	-63.54
475.911	-45.54
476.172	-187.54
476.432	-95.54
476.693	62.46
476.953	-6.54
477.214	-29.54
477.475	-14.54
477.735	-5.54
477.996	5.46
478.256	-198.54
478.517	-174.54
478.777	-75.54
479.038	-9.54
479.298	-27.54
479.558	-103.54
479.819	55.46
480.079	53.46
480.34	-47.54
480.6	-118.54
480.861	-19.54
481.121	-49.54
481.381	-144.54
481.642	-77.54
481.902	-69.54
482.162	-118.54
482.423	-101.54
482.683	-23.54
482.943	10.46
483.204	-87.54
483.464	-119.54
483.724	-95.54
483.985	-39.54
484.245	-6.54
484.505	-107.54
484.765	-23.54
485.026	46.46
485.286	9.46
485.546	-59.54
485.806	-8.54
486.067	5.46
486.327	-115.54
486.587	-181.54
486.847	-167.54
487.107	-43.54
487.368	-31.54
487.628	-101.54
487.888	-97.54
488.148	-16.54
488.408	-100.54
488.668	-77.54
488.928	-31.54
489.188	-29.54
489.449	53.46
489.709	-93.54
489.969	-102.54
490.229	-11.54
490.489	-44.54
490.749	-127.54
491.009	-196.54
491.269	-110.54
491.529	-103.54
491.789	-165.54
492.049	-60.54
492.309	53.46
492.569	-74.54
492.829	-121.54
493.089	-112.54
493.349	40.46
493.609	-55.54
493.869	-162.54
494.129	-70.54
494.389	56.46
494.648	-73.54
494.908	-181.54
495.168	-88.54
495.428	38.46
495.688	-35.54
495.948	-206.54
496.208	-172.54
496.467	-112.54
496.727	-69.54
496.987	-84.54
497.247	-95.54
497.507	0.46
497.767	18.46
498.026	-171.54
498.286	-66.54
498.546	134.46
498.806	3.46
499.065	38.46
499.325	-31.54
499.585	-46.54
499.845	-52.54
500.104	-56.54
500.364	42.46
500.624	-2.54
500.883	-80.54
501.143	-55.54
501.403	23.46
501.662	102.46
501.922	-4.54
502.182	-152.54
502.441	-153.54
502.701	-79.54
502.96	21.46
503.22	-69.54
503.48	-102.54
503.739	-23.54
503.999	-66.54
504.258	-153.54
504.518	-78.54
504.777	29.46
505.037	-38.54
505.296	-105.54
505.556	-111.54
505.815	24.46
506.075	103.46
506.334	-2.54
506.594	-166.54
506.853	-103.54
507.113	-95.54
507.372	-226.54
507.632	-165.54
507.891	-54.54
508.151	-15.54
508.41	-176.54
508.669	-133.54
508.929	19.46
509.188	-36.54
509.447	-110.54
509.707	-130.54
509.966	-59.54
510.226	-49.54
510.485	-87.54
510.744	-74.54
511.004	8.46
511.263	-81.54
511.522	-165.54
511.781	-121.54
512.041	6.46
512.3	-59.54
512.559	-35.54
512.818	7.46
513.078	-14.54
513.337	-27.54
513.596	-106.54
513.855	-107.54
514.115	26.46
514.374	-26.54
514.633	-144.54
514.892	-163.54
515.151	-22.54
515.41	23.46
515.67	-86.54
515.929	-139.54
516.188	-46.54
516.447	-65.54
516.706	-138.54
516.965	-107.54
517.224	-80.54
517.483	-85.54
517.743	-124.54
518.002	-76.54
518.261	11.46
518.52	-48.54
518.779	-156.54
519.038	-108.54
519.297	-72.54
519.556	-86.54
519.815	-173.54
520.074	-171.54
520.333	-65.54
520.592	-79.54
520.851	-168.54
521.11	-46.54
521.369	110.46
521.628	-68.54
521.887	-153.54
522.145	-97.54
522.404	-26.54
522.663	-32.54
522.922	-188.54
523.181	-160.54
523.44	-33.54
523.699	-29.54
523.958	-187.54
524.217	-141.54
524.475	-109.54
524.734	-155.54
524.993	-163.54
525.252	-101.54
525.511	-27.54
525.769	-79.54
526.028	-157.54
526.287	-110.54
526.546	-39.54
526.805	-67.54
527.063	-150.54
527.322	-162.54
527.581	-64.54
527.839	-71.54
528.098	-73.54
528.357	-59.54
528.616	-39.54
528.874	-56.54
529.133	-115.54
529.392	-84.54
529.65	-29.54
529.909	-71.54
530.168	-173.54
530.426	-130.54
530.685	5.46
530.943	-39.54
531.202	-154.54
531.461	-144.54
531.719	-2.54
531.978	-63.54
532.236	-143.54
532.495	-62.54
532.753	-23.54
533.012	-92.54
533.271	-164.54
533.529	-154.54
533.788	-64.54
534.046	-150.54
534.305	-174.54
534.563	45.46
534.822	104.46
535.08	-9.54
535.338	-118.54
535.597	-78.54
535.855	2.46
536.114	-62.54
536.372	-156.54
536.631	-88.54
536.889	11.46
537.147	-35.54
537.406	-197.54
537.664	-94.54
537.923	-28.54
538.181	-15.54
538.439	-162.54
538.698	-29.54
538.956	-18.54
539.214	-55.54
539.473	-98.54
539.731	-27.54
539.989	10.46
540.248	-49.54
540.506	-110.54
540.764	-97.54
541.022	5.46
541.281	52.46
541.539	-65.54
541.797	-127.54
542.055	30.46
542.314	118.46
542.572	81.46
542.83	-46.54
543.088	70.46
543.346	41.46
543.604	-61.54
543.863	33.46
544.121	188.46
544.379	111.46
544.637	30.46
544.895	165.46
545.153	311.46
545.411	177.46
545.67	42.46
545.928	115.46
546.186	283.46
546.444	401.46
546.702	381.46
546.96	476.46
547.218	608.46
547.476	615.46
547.734	616.46
547.992	794.46
548.25	1023.46
548.508	1064.46
548.766	1204.46
549.024	1381.46
549.282	1580.46
549.54	1791.46
549.798	1993.46
550.056	2192.46
550.314	2485.46
550.572	2650.46
550.83	2705.46
551.088	2975.46
551.346	3271.46
551.603	3445.46
551.861	3426.46
552.119	3670.46
552.377	3874.46
552.635	3854.46
552.893	3756.46
553.151	3838.46
553.409	4059.46
553.666	4067.46
553.924	3950.46
554.182	3901.46
554.44	3978.46
554.698	3953.46
554.955	3733.46
555.213	3578.46
555.471	3512.46
555.729	3300.46
555.986	2926.46
556.244	2820.46
556.502	2852.46
556.76	2505.46
557.017	2198.46
557.275	2031.46
557.533	1923.46
557.79	1675.46
558.048	1322.46
558.306	1253.46
558.563	1201.46
558.821	959.46
559.079	784.46
559.336	700.46
559.594	636.46
559.852	479.46
560.109	372.46
560.367	419.46
560.624	391.46
560.882	296.46
561.14	232.46
561.397	305.46
561.655	206.46
561.912	187.46
562.17	41.46
562.427	82.46
562.685	115.46
562.942	102.46
563.2	-46.54
563.457	40.46
563.715	69.46
563.972	77.46
564.23	-90.54
564.487	-116.54
564.745	17.46
565.002	37.46
565.26	-65.54
565.517	-70.54
565.774	-12.54
566.032	-27.54
566.289	-84.54
566.547	-59.54
566.804	47.46
567.061	13.46
567.319	-129.54
567.576	-43.54
567.833	100.46
568.091	148.46
568.348	-44.54
568.605	-2.54
568.863	19.46
569.12	-5.54
569.377	-108.54
569.635	-105.54
569.892	-55.54
570.149	-77.54
570.406	-200.54
570.664	-137.54
570.921	-11.54
571.178	-97.54
571.435	-79.54
571.693	-78.54
571.95	-3.54
572.207	-65.54
572.464	-85.54
572.721	1.46
572.979	77.46
573.236	4.46
573.493	-103.54
573.75	-85.54
574.007	35.46
574.264	-35.54
574.521	-102.54
574.779	-80.54
575.036	-20.54
575.293	-63.54
575.55	-118.54
575.807	-107.54
576.064	-14.54
576.321	-57.54
576.578	-207.54
576.835	-148.54
577.092	63.46
577.349	-19.54
577.606	-221.54
577.863	-152.54
578.12	-16.54
578.377	-17.54
578.634	-222.54
578.891	-143.54
579.148	-24.54
579.405	-101.54
579.662	-183.54
579.919	-69.54
580.176	-50.54
580.433	-44.54
580.69	-113.54
580.947	-94.54
581.204	-9.54
581.461	-47.54
581.717	-146.54
581.974	4.46
582.231	36.46
582.488	-72.54
582.745	-143.54
583.002	-118.54
583.259	12.46
583.515	-37.54
583.772	-192.54
584.029	-142.54
584.286	2.46
584.543	-155.54
584.799	-163.54
585.056	-85.54
585.313	-15.54
585.57	39.46
585.826	-114.54
586.083	-29.54
586.34	134.46
586.597	-61.54
586.853	-206.54
587.11	-180.54
587.367	16.46
587.623	77.46
587.88	-27.54
588.137	-116.54
588.393	-1.54
588.65	-76.54
588.907	-162.54
589.163	-103.54
589.42	-39.54
589.677	-27.54
589.933	-143.54
590.19	-52.54
590.446	71.46
590.703	35.46
590.96	-178.54
591.216	-201.54
591.473	-78.54
591.729	-75.54
591.986	-77.54
592.242	-33.54
592.499	144.46
592.755	1.46
593.012	-188.54
593.268	-102.54
593.525	-51.54
593.781	-26.54
594.038	-127.54
594.294	-104.54
594.551	-66.54
594.807	-127.54
595.064	-133.54
595.32	-139.54
595.576	-33.54
595.833	15.46
596.089	-90.54
596.346	-16.54
596.602	28.46
596.858	86.46
597.115	-92.54
597.371	-14.54
597.628	-4.54
597.884	-75.54
598.14	-142.54
598.397	-10.54
598.653	71.46
598.909	-43.54
599.166	-179.54
599.422	-116.54
599.678	-16.54
599.934	-37.54
600.191	-152.54
600.447	-105.54
600.703	-50.54
600.959	-88.54
601.216	-219.54
601.472	-163.54
601.728	-37.54
601.984	-86.54
602.241	-195.54
602.497	-112.54
602.753	16.46
603.009	-57.54
603.265	-160.54
603.521	-27.54
603.778	67.46
604.034	-122.54
604.29	-198.54
604.546	-118.54
604.802	-32.54
605.058	-87.54
605.314	-203.54
605.571	-142.54
605.827	-89.54
606.083	-80.54
606.339	-183.54
606.595	-74.54
606.851	29.46
607.107	52.46
607.363	-157.54
607.619	-117.54
607.875	86.46
608.131	17.46
608.387	-209.54
608.643	-143.54
608.899	-55.54
609.155	-78.54
609.411	-94.54
609.667	-63.54
609.923	-60.54
610.179	-98.54
610.435	-256.54
610.691	-186.54
610.947	-13.54
611.203	-74.54
611.459	-143.54
611.714	-66.54
611.97	65.46
612.226	-0.54
612.482	-174.54
612.738	-98.54
612.994	95.46
613.25	-29.54
613.505	-159.54
613.761	-115.54
614.017	-45.54
614.273	-65.54
614.529	-128.54
614.785	-172.54
615.04	-54.54
615.296	-39.54
615.552	-124.54
615.808	-88.54
616.063	-16.54
616.319	-30.54
616.575	-139.54
616.831	-92.54
617.086	117.46
617.342	49.46
617.598	-67.54
617.854	-0.54
618.109	60.46
618.365	-112.54
618.621	-185.54
618.876	-58.54
619.132	39.46
619.388	-12.54
619.643	-155.54
619.899	-68.54
620.155	32.46
620.41	17.46
620.666	-127.54
620.921	-75.54
621.177	31.46
621.433	68.46
621.688	-44.54
621.944	-121.54
622.199	-47.54
622.455	-46.54
622.71	-147.54
622.966	-116.54
623.221	-108.54
623.477	-103.54
623.732	-84.54
623.988	-145.54
624.243	-12.54
624.499	-18.54
624.754	-176.54
625.01	-143.54
625.265	-39.54
625.521	57.46
625.776	-60.54
626.032	-38.54
626.287	-6.54
626.543	-76.54
626.798	-113.54
627.053	-82.54
627.309	-22.54
627.564	-90.54
627.82	-78.54
628.075	-5.54
628.33	-23.54
628.586	-132.54
628.841	-227.54
629.096	-106.54
629.352	-14.54
629.607	-116.54
629.862	-139.54
630.118	-47.54
630.373	-83.54
630.628	-39.54
630.884	-152.54
631.139	-102.54
631.394	43.46
631.649	-20.54
631.905	-171.54
632.16	-64.54
632.415	137.46
632.67	-31.54
632.926	-176.54
633.181	-170.54
633.436	-31.54
633.691	-98.54
633.946	-224.54
634.202	-176.54
634.457	-11.54
634.712	-73.54
634.967	-173.54
635.222	-205.54
635.477	-111.54
635.733	-99.54
635.988	-192.54
636.243	-166.54
636.498	-11.54
636.753	-35.54
637.008	-169.54
637.263	-88.54
637.518	-24.54
637.773	-59.54
638.028	-109.54
638.283	-79.54
638.539	29.46
638.794	-18.54
639.049	-156.54
639.304	-153.54
639.559	-84.54
639.814	-102.54
640.069	-158.54
640.324	-135.54
640.579	-27.54
640.834	-45.54
641.089	-163.54
641.344	-86.54
641.598	126.46
641.853	25.46
642.108	-148.54
642.363	-204.54
642.618	-31.54
642.873	-77.54
643.128	-181.54
643.383	-112.54
643.638	-14.54
643.893	21.46
644.148	-58.54
644.402	-129.54
644.657	-3.54
644.912	-92.54
645.167	-117.54
645.422	-36.54
645.677	-28.54
645.931	17.46
646.186	1.46
646.441	-73.54
646.696	-90.54
646.951	-84.54
647.205	-117.54
647.46	-111.54
647.715	-76.54
647.97	84.46
648.224	213.46
648.479	-2.54
648.734	76.46
648.989	12.46
649.243	-81.54
649.498	-101.54
649.753	-65.54
650.007	-18.54
650.262	-95.54
650.517	-105.54
650.771	-54.54
651.026	-105.54
651.281	-212.54
651.535	-88.54
651.79	-58.54
652.045	-72.54
652.299	-126.54
652.554	-119.54
652.809	-33.54
653.063	118.46
653.318	7.46
653.572	-98.54
653.827	40.46
654.081	-41.54
654.336	-200.54
654.591	-163.54
654.845	-47.54
655.1	-88.54
655.354	-135.54
655.609	-81.54
655.863	32.46
656.118	7.46
656.372	-139.54
656.627	-121.54
656.881	-8.54
657.136	-72.54
657.39	-183.54
657.645	-51.54
657.899	81.46
658.153	-14.54
658.408	-126.54
658.662	-63.54
658.917	-36.54
659.171	-123.54
659.426	-195.54
659.68	-120.54
659.934	-10.54
660.189	-50.54
660.443	-154.54
660.697	9.46
660.952	90.46
661.206	-66.54
661.46	-215.54
661.715	-130.54
661.969	-17.54
662.223	-62.54
662.478	-139.54
662.732	-80.54
662.986	-53.54
663.241	-59.54
663.495	-173.54
663.749	-127.54
664.003	9.46
664.258	-55.54
664.512	-135.54
664.766	-88.54
665.02	-21.54
665.275	-1.54
665.529	-158.54
665.783	-117.54
666.037	-49.54
666.291	-73.54
666.546	-141.54
666.8	-99.54
667.054	-111.54
667.308	-79.54
667.562	-239.54
667.816	-152.54
668.071	-27.54
668.325	-142.54
668.579	-162.54
668.833	-94.54
669.087	39.46
669.341	-43.54
669.595	-175.54
669.849	-121.54
670.103	-70.54
670.357	-79.54
670.612	-109.54
670.866	-138.54
671.12	-64.54
671.374	-72.54
671.628	-96.54
671.882	-141.54
672.136	-52.54
672.39	-37.54
672.644	-210.54
672.898	-73.54
673.152	66.46
673.406	-1.54
673.66	-86.54
673.914	-32.54
674.168	39.46
674.422	-58.54
674.675	-160.54
674.929	-64.54
675.183	34.46
675.437	-14.54
675.691	-85.54
675.945	-19.54
676.199	75.46
676.453	-29.54
676.707	-167.54
676.961	-154.54
677.214	-71.54
677.468	-47.54
677.722	-43.54
677.976	-71.54
678.23	-28.54
678.484	-20.54
678.737	-172.54
678.991	-129.54
679.245	-53.54
679.499	-88.54
679.753	-156.54
680.006	-73.54
680.26	12.46
680.514	32.46
680.768	-134.54
681.021	-56.54
681.275	-41.54
681.529	-38.54
681.783	-99.54
682.036	-79.54
682.29	-88.54
682.544	-62.54
682.797	-108.54
683.051	-144.54
683.305	-95.54
683.559	-71.54
683.812	-50.54
684.066	-75.54
684.32	-23.54
684.573	-71.54
684.827	-67.54
685.08	-32.54
685.334	59.46
685.588	-56.54
685.841	-180.54
686.095	-24.54
686.348	-6.54
686.602	4.46
686.856	-33.54
687.109	-97.54
687.363	-68.54
687.616	-111.54
687.87	-214.54
688.123	-157.54
688.377	-60.54
688.63	-27.54
688.884	-23.54
689.137	78.46
689.391	65.46
689.644	-89.54
689.898	-182.54
690.151	-149.54
690.405	-25.54
690.658	-47.54
690.912	-99.54
691.165	-109.54
691.419	-55.54
691.672	-9.54
691.926	-104.54
692.179	-92.54
692.432	-26.54
692.686	-78.54
692.939	-197.54
693.193	-159.54
693.446	13.46
693.699	2.46
693.953	-21.54
694.206	-67.54
694.459	15.46
694.713	51.46
694.966	-106.54
695.219	-121.54
695.473	-36.54
695.726	-117.54
695.979	-195.54
696.233	-68.54
696.486	12.46
696.739	-31.54
696.992	-154.54
697.246	-37.54
697.499	33.46
697.752	-127.54
698.006	-146.54
698.259	-37.54
698.512	-57.54
698.765	-121.54
699.018	-137.54
699.272	-44.54
699.525	-85.54
699.778	-138.54
700.031	-169.54
700.284	-141.54
700.538	-15.54
700.791	-25.54
701.044	-92.54
701.297	-84.54
701.55	-43.54
701.803	-81.54
702.056	-186.54
702.31	-124.54
702.563	-10.54
702.816	-89.54
703.069	-238.54
703.322	-156.54
703.575	-35.54
703.828	-7.54
704.081	-119.54
704.334	-132.54
704.587	-73.54
704.84	-123.54
705.093	-132.54
705.346	10.46
705.599	-17.54
705.853	-16.54
706.106	29.46
706.359	263.46
706.612	9.46
706.865	33.46
707.118	-161.54
707.37	-88.54
707.623	24.46
707.876	-19.54
708.129	-64.54
708.382	23.46
708.635	111.46
708.888	-63.54
709.141	-175.54
709.394	-62.54
709.647	38.46
709.9	-86.54
710.153	-205.54
710.406	-88.54
710.658	19.46
710.911	-59.54
711.164	-173.54
711.417	-135.54
711.67	-84.54
711.923	-44.54
712.176	-157.54
712.428	-117.54
712.681	-52.54
712.934	-18.54
713.187	-99.54
713.44	-156.54
713.692	-14.54
713.945	-78.54
714.198	-191.54
714.451	-194.54
714.704	-39.54
714.956	2.46
715.209	9.46
715.462	-31.54
715.715	-0.54
715.967	-18.54
716.22	-160.54
716.473	-138.54
716.725	27.46
716.978	-29.54
717.231	-40.54
717.484	-11.54
717.736	-74.54
717.989	-132.54
718.242	-212.54
718.494	-96.54
718.747	25.46
718.999	-56.54
719.252	-55.54
719.505	-65.54
719.757	-41.54
720.01	-52.54
720.263	-111.54
720.515	-99.54
720.768	5.46
721.02	-16.54
721.273	-144.54
721.525	-162.54
721.778	-62.54
722.031	20.46
722.283	-138.54
722.536	-128.54
722.788	-48.54
723.041	-88.54
723.293	-161.54
723.546	-165.54
723.798	-45.54
724.051	7.46
724.303	-42.54
724.556	-46.54
724.808	99.46
725.061	22.46
725.313	-102.54
725.566	-89.54
725.818	-48.54
726.071	-82.54
726.323	-197.54
726.575	-112.54
726.828	12.46
727.08	26.46
727.333	-132.54
727.585	-115.54
727.837	-45.54
728.09	-43.54
728.342	-180.54
728.595	-66.54
728.847	99.46
729.099	-144.54
729.352	-174.54
729.604	-140.54
729.856	-55.54
730.109	-68.54
730.361	-150.54
730.613	-52.54
730.866	32.46
731.118	-103.54
731.37	-185.54
731.622	-145.54
731.875	-60.54
732.127	-9.54
732.379	-78.54
732.631	-5.54
732.884	-4.54
733.136	-75.54
733.388	-170.54
733.64	-99.54
733.893	35.46
734.145	-36.54
734.397	-161.54
734.649	-159.54
734.901	-46.54
735.154	-128.54
735.406	-202.54
735.658	-137.54
735.91	17.46
736.162	-50.54
736.414	-169.54
736.667	-90.54
736.919	-46.54
737.171	-126.54
737.423	-145.54
737.675	-108.54
737.927	1.46
738.179	-52.54
738.431	-100.54
738.684	-155.54
738.936	-73.54
739.188	-4.54
739.44	-187.54
739.692	-182.54
739.944	-156.54
740.196	-112.54
740.448	-159.54
740.7	-176.54
740.952	-95.54
741.204	-83.54
741.456	-179.54
741.708	-114.54
741.96	-113.54
742.212	-47.54
742.464	-41.54
742.716	-176.54
742.968	-81.54
743.22	-140.54
743.472	-210.54
743.724	-133.54
743.976	12.46
744.228	-2.54
744.48	-226.54
744.732	-183.54
744.983	-21.54
745.235	-52.54
745.487	-116.54
745.739	-94.54
745.991	-108.54
746.243	-26.54
746.495	-180.54
746.747	-167.54
746.999	-67.54
747.25	-66.54
747.502	-112.54
747.754	-17.54
748.006	-82.54
748.258	14.46
748.51	29.46
748.761	-120.54
749.013	-48.54
749.265	21.46
749.517	-18.54
749.768	41.46
750.02	64.46
750.272	-3.54
750.524	-158.54
750.776	-200.54
751.027	-10.54
751.279	28.46
751.531	-183.54
751.782	-99.54
752.034	5.46
752.286	-108.54
752.538	-224.54
752.789	-97.54
753.041	-20.54
753.293	-58.54
753.544	-147.54
753.796	-125.54
754.048	-10.54
754.299	-17.54
754.551	-78.54
754.803	-122.54
755.054	-103.54
755.306	-39.54
755.558	-146.54
755.809	-118.54
756.061	27.46
756.312	-80.54
756.564	-100.54
756.816	-70.54
757.067	-60.54
757.319	-84.54
757.57	-130.54
757.822	-47.54
758.073	27.46
758.325	-30.54
758.577	-167.54
758.828	-156.54
759.08	70.46
759.331	86.46
759.583	-131.54
759.834	-18.54
760.086	-57.54
760.337	-85.54
760.589	-150.54
760.84	-133.54
761.092	-38.54
761.343	-70.54
761.595	-222.54
761.846	-63.54
762.097	-28.54
762.349	-101.54
762.6	-228.54
762.852	-93.54
763.103	48.46
763.355	-87.54
763.606	-183.54
763.857	-54.54
764.109	52.46
764.36	-33.54
764.612	-118.54
764.863	-42.54
765.114	-8.54
765.366	-145.54
765.617	-216.54
765.868	-154.54
766.12	5.46
766.371	7.46
766.622	-188.54
766.874	-120.54
767.125	28.46
767.376	-111.54
767.628	-190.54
767.879	-124.54
768.13	-9.54
768.381	-35.54
768.633	-86.54
768.884	-79.54
769.135	11.46
769.386	-28.54
769.638	-82.54
769.889	-72.54
770.14	-34.54
770.391	-125.54
770.643	-176.54
770.894	-186.54
771.145	-73.54
771.396	-130.54
771.647	-202.54
771.899	-91.54
772.15	-15.54
772.401	-51.54
772.652	-188.54
772.903	-163.54
773.154	184.46
773.406	412.46
773.657	-124.54
773.908	-132.54
774.159	-38.54
774.41	-21.54
774.661	-161.54
774.912	-108.54
775.163	61.46
775.414	58.46
775.666	-183.54
775.917	-158.54
776.168	-103.54
776.419	-95.54
776.67	-170.54
776.921	-173.54
777.172	-82.54
777.423	-59.54
777.674	-36.54
777.925	-51.54
778.176	-112.54
778.427	-105.54
778.678	-170.54
778.929	-149.54
779.18	-59.54
779.431	-137.54
779.682	-123.54
779.933	-92.54
780.184	-51.54
780.435	-84.54
780.686	-122.54
780.937	-69.54
781.188	-19.54
781.439	64.46
781.69	-15.54
781.941	-72.54
782.191	-54.54
782.442	-61.54
782.693	-166.54
782.944	-163.54
783.195	-70.54
783.446	-61.54
783.697	-49.54
783.948	-146.54
784.199	-114.54
784.449	-147.54
784.7	-119.54
784.951	-97.54
785.202	55.46
785.453	16.46
785.704	-186.54
785.954	-196.54
786.205	-106.54
786.456	-169.54
786.707	-245.54
786.958	-189.54
787.208	-75.54
787.459	-118.54
787.71	-98.54
787.961	-127.54
788.211	-75.54
788.462	-68.54
788.713	-113.54
788.964	-142.54
789.214	-42.54
789.465	-26.54
789.716	-81.54
789.967	-83.54
790.217	-106.54
790.468	-142.54
790.719	-194.54
790.969	-159.54
791.22	-100.54
791.471	-30.54
791.721	-4.54
791.972	-114.54
792.223	-36.54
792.473	-116.54
792.724	-130.54
792.975	-140.54
793.225	-63.54
793.476	-103.54
793.726	-168.54
793.977	-63.54
794.228	60.46
794.478	-56.54
794.729	-148.54
794.979	-45.54
795.23	-11.54
795.481	-67.54
795.731	-176.54
795.982	-105.54
796.232	-109.54
796.483	-156.54
796.733	-202.54
796.984	-148.54
797.234	-54.54
797.485	-40.54
797.735	-187.54
797.986	-154.54
798.236	-42.54
798.487	-90.54
798.737	-104.54
798.988	-45.54
799.238	17.46
799.489	-82.54
799.739	-162.54
799.99	-83.54
800.24	5.46
800.491	39.46
800.741	-113.54
800.991	-152.54
801.242	-90.54
801.492	-68.54
801.743	-131.54
801.993	99.46
802.244	325.46
802.494	-30.54
802.744	-90.54
802.995	-80.54
803.245	-62.54
803.495	-95.54
803.746	-148.54
803.996	-56.54
804.246	-49.54
804.497	-32.54
804.747	-177.54
804.997	-116.54
805.248	-85.54
805.498	-123.54
805.748	-115.54
805.999	-191.54
806.249	-108.54
806.499	-117.54
806.75	-227.54
807	-194.54
807.25	-77.54
807.5	-127.54
807.751	-116.54
808.001	-67.54
808.251	-39.54
808.501	32.46
808.752	2.46
809.002	-47.54
809.252	-61.54
809.502	-115.54
809.752	-146.54
810.003	-182.54
810.253	-104.54
810.503	-77.54
810.753	-37.54
811.003	-27.54
811.254	10.46
811.504	-79.54
811.754	-116.54
812.004	-85.54
812.254	138.46
812.504	-20.54
812.754	-122.54
813.005	-70.54
813.255	9.46
813.505	-43.54
813.755	-146.54
814.005	-80.54
814.255	-63.54
814.505	-106.54
814.755	-213.54
815.005	-168.54
815.255	-44.54
815.505	-93.54
815.756	-47.54
816.006	-61.54
816.256	-114.54
816.506	-154.54
816.756	-207.54
817.006	-164.54
817.256	-54.54
817.506	-66.54
817.756	-109.54
818.006	-85.54
818.256	-52.54
818.506	-80.54
818.756	-187.54
819.006	-142.54
819.256	-43.54
819.506	-103.54
819.756	-182.54
820.006	-92.54
820.255	-42.54
820.505	-67.54
820.755	-188.54
821.005	-122.54
821.255	0.46
821.505	-63.54
821.755	-139.54
822.005	-51.54
822.255	28.46
822.505	-68.54
822.755	-60.54
823.004	-182.54
823.254	-157.54
823.504	-92.54
823.754	-91.54
824.004	-148.54
824.254	-46.54
824.504	-43.54
824.753	-5.54
825.003	-25.54
825.253	7.46
825.503	-117.54
825.753	-155.54
826.002	-69.54
826.252	135.46
826.502	-55.54
826.752	-142.54
827.002	-123.54
827.251	-19.54
827.501	-91.54
827.751	-175.54
828.001	-136.54
828.25	-19.54
828.5	-153.54
828.75	-182.54
829	-106.54
829.249	27.46
829.499	-111.54
829.749	-127.54
829.998	-50.54
830.248	-18.54
830.498	-145.54
830.748	-145.54
830.997	-75.54
831.247	-5.54
831.497	-12.54
831.746	-84.54
831.996	-10.54
832.246	101.46
832.495	108.46
832.745	-146.54
832.994	-141.54
833.244	25.46
833.494	-71.54
833.743	-187.54
833.993	-130.54
834.243	-54.54
834.492	-58.54
834.742	-91.54
834.991	-96.54
835.241	76.46
835.49	-80.54
835.74	-186.54
835.99	-123.54
836.239	-8.54
836.489	15.46
836.738	-95.54
836.988	-205.54
837.237	-71.54
837.487	28.46
837.736	-96.54
837.986	-125.54
838.235	-57.54
838.485	-88.54
838.734	-138.54
838.984	-40.54
839.233	-53.54
839.483	-152.54
839.732	-178.54
839.982	-91.54
840.231	-24.54
840.481	-38.54
840.73	-146.54
840.979	-83.54
841.229	-69.54
841.478	-71.54
841.728	-204.54
841.977	-209.54
842.227	-142.54
842.476	-171.54
842.725	-218.54
842.975	-162.54
843.224	-35.54
843.474	-1.54
843.723	-109.54
843.972	-108.54
844.222	-48.54
844.471	-15.54
844.72	-139.54
844.97	-126.54
845.219	-31.54
845.468	-36.54
845.718	-90.54
845.967	-77.54
846.216	-33.54
846.466	13.46
846.715	-122.54
846.964	-88.54
847.214	-101.54
847.463	-148.54
847.712	-99.54
847.961	-132.54
848.211	-55.54
848.46	-68.54
848.709	-116.54
848.958	-144.54
849.208	-85.54
849.457	-82.54
849.706	-75.54
849.955	-114.54
850.205	-123.54
850.454	7.46
850.703	35.46
850.952	-18.54
851.201	19.46
851.451	-51.54
851.7	-42.54
851.949	-166.54
852.198	-51.54
852.447	-72.54
852.696	-154.54
852.946	-125.54
853.195	-26.54
853.444	-9.54
853.693	-182.54
853.942	-180.54
854.191	-89.54
854.44	-71.54
854.689	-111.54
854.939	-146.54
855.188	-159.54
855.437	-136.54
855.686	-154.54
855.935	-105.54
856.184	-45.54
856.433	1.46
856.682	-51.54
856.931	-56.54
857.18	-34.54
857.429	-117.54
857.678	-162.54
857.927	-120.54
858.176	-71.54
858.425	-135.54
858.674	-198.54
858.924	-103.54
859.173	-76.54
859.422	-56.54
859.671	-197.54
859.92	-126.54
860.169	-72.54
860.417	-31.54
860.666	-104.54
860.915	-142.54
861.164	-106.54
861.413	-138.54
861.662	-200.54
861.911	-148.54
862.16	-5.54
862.409	-38.54
862.658	-193.54
862.907	-144.54
863.156	-42.54
863.405	-63.54
863.654	-158.54
863.903	-199.54
864.151	-102.54
864.4	-71.54
864.649	-123.54
864.898	-68.54
865.147	-39.54
865.396	-7.54
865.645	-134.54
865.894	-90.54
866.142	31.46
866.391	-71.54
866.64	-178.54
866.889	-75.54
867.138	84.46
867.387	-15.54
867.635	-131.54
867.884	-79.54
868.133	14.46
868.382	-60.54
868.631	-177.54
868.879	-184.54
869.128	-75.54
869.377	-66.54
869.626	-122.54
869.874	-113.54
870.123	-8.54
870.372	-64.54
870.621	-192.54
870.869	-151.54
871.118	-35.54
871.367	-51.54
871.616	-187.54
871.864	-72.54
872.113	-27.54
872.362	-68.54
872.61	-116.54
872.859	-59.54
873.108	-0.54
873.357	-95.54
873.605	-191.54
873.854	-160.54
874.103	-115.54
874.351	-115.54
874.6	-132.54
874.848	-97.54
875.097	-39.54
875.346	-32.54
875.594	-161.54
875.843	-51.54
876.092	88.46
876.34	-38.54
876.589	-140.54
876.837	-210.54
877.086	-123.54
877.335	-42.54
877.583	-112.54
877.832	-65.54
878.08	63.46
878.329	-39.54
878.578	-134.54
878.826	-107.54
879.075	-26.54
879.323	-40.54
879.572	-117.54
879.82	11.46
880.069	-19.54
880.317	2.46
880.566	-122.54
880.814	-28.54
881.063	67.46
881.311	-32.54
881.56	1.46
881.808	-90.54
882.057	-26.54
882.305	-51.54
882.554	-53.54
882.802	-130.54
883.051	-81.54
883.299	-59.54
883.548	-108.54
883.796	-20.54
884.045	-27.54
884.293	-87.54
884.541	-204.54
884.79	-206.54
885.038	-105.54
885.287	-103.54
885.535	-80.54
885.783	-46.54
886.032	-96.54
886.28	-126.54
886.529	-159.54
886.777	-109.54
887.025	44.46
887.274	-86.54
887.522	-152.54
887.77	-121.54
888.019	-102.54
888.267	-133.54
888.516	-204.54
888.764	-140.54
889.012	-69.54
889.261	-72.54
889.509	-163.54
889.757	-144.54
890.005	-90.54
890.254	-135.54
890.502	-120.54
890.75	84.46
890.999	87.46
891.247	-23.54
891.495	-86.54
891.743	-86.54
891.992	53.46
892.24	-54.54
892.488	-170.54
892.737	-151.54
892.985	-50.54
893.233	-56.54
893.481	-107.54
893.729	-132.54
893.978	29.46
894.226	41.46
894.474	-113.54
894.722	-127.54
894.97	-87.54
895.219	-105.54
895.467	-86.54
895.715	-47.54
895.963	-78.54
896.211	-123.54
896.46	-196.54
896.708	-87.54
896.956	-1.54
897.204	66.46
897.452	-39.54
897.7	-108.54
897.948	-39.54
898.197	-83.54
898.445	-133.54
898.693	-111.54
898.941	-36.54
899.189	-53.54
899.437	-112.54
899.685	0.46
899.933	-60.54
900.181	-55.54
900.43	-134.54
900.678	-108.54
900.926	-29.54
901.174	-64.54
901.422	-118.54
901.67	-112.54
901.918	-39.54
902.166	-80.54
902.414	-206.54
902.662	-147.54
902.91	-37.54
903.158	-55.54
903.406	-110.54
903.654	-87.54
903.902	-62.54
904.15	-87.54
904.398	-185.54
904.646	-95.54
904.894	-20.54
905.142	3.46
905.39	-51.54
905.638	-139.54
905.886	-89.54
906.134	-91.54
906.382	-104.54
906.63	-137.54
906.878	-41.54
907.126	-69.54
907.374	-137.54
907.622	-123.54
907.869	11.46
908.117	-22.54
908.365	-107.54
908.613	-133.54
908.861	-118.54
909.109	-151.54
909.357	-175.54
909.605	-96.54
909.853	-18.54
910.1	-99.54
910.348	-263.54
910.596	-221.54
910.844	-26.54
911.092	16.46
911.34	-109.54
911.588	-84.54
911.835	-33.54
912.083	-40.54
912.331	-53.54
912.579	-46.54
912.827	128.46
913.075	2.46
913.322	-157.54
913.57	-139.54
913.818	-6.54
914.066	-59.54
914.313	-129.54
914.561	-51.54
914.809	-34.54
915.057	-88.54
915.305	-91.54
915.552	-92.54
915.8	-0.54
916.048	-94.54
916.296	-166.54
916.543	-44.54
916.791	33.46
917.039	-44.54
917.286	-158.54
917.534	-140.54
917.782	-9.54
918.03	-82.54
918.277	-192.54
918.525	-186.54
918.773	-64.54
919.02	-89.54
919.268	-145.54
919.516	-114.54
919.763	-121.54
920.011	-127.54
920.259	-188.54
920.506	-92.54
920.754	-2.54
921.002	-19.54
921.249	-68.54
921.497	-109.54
921.745	-73.54
921.992	-44.54
922.24	-188.54
922.487	-66.54
922.735	94.46
922.983	16.46
923.23	-87.54
923.478	-136.54
923.725	-43.54
923.973	-34.54
924.221	-52.54
924.468	-26.54
924.716	-36.54
924.963	-76.54
925.211	-126.54
925.458	-35.54
925.706	78.46
925.953	81.46
926.201	-113.54
926.448	-122.54
926.696	-22.54
926.944	-68.54
927.191	-120.54
927.439	-102.54
927.686	-87.54
927.934	-59.54
928.181	-162.54
928.429	-156.54
928.676	-94.54
928.923	-150.54
929.171	-179.54
929.418	-20.54
929.666	33.46
929.913	-7.54
930.161	-208.54
930.408	-148.54
930.656	-56.54
930.903	-15.54
931.151	-153.54
931.398	-110.54
931.645	17.46
931.893	-92.54
932.14	-113.54
932.388	-80.54
932.635	53.46
932.882	94.46
933.13	-41.54
933.377	-107.54
933.625	-2.54
933.872	-94.54
934.119	-161.54
934.367	-89.54
934.614	-96.54
934.861	-118.54
935.109	-121.54
935.356	-67.54
935.603	-26.54
935.851	-80.54
936.098	-129.54
936.345	-19.54
936.593	-16.54
936.84	-65.54
937.087	-196.54
937.335	-136.54
937.582	-52.54
937.829	-38.54
938.077	-87.54
938.324	-102.54
938.571	-17.54
938.818	-103.54
939.066	-148.54
939.313	-170.54
939.56	-29.54
939.807	-18.54
940.055	-156.54
940.302	-107.54
940.549	47.46
940.796	-24.54
941.044	-71.54
941.291	-72.54
941.538	79.46
941.785	-46.54
942.033	-108.54
942.28	-32.54
942.527	-15.54
942.774	-44.54
943.021	-184.54
943.269	-152.54
943.516	-38.54
943.763	-21.54
944.01	-88.54
944.257	-27.54
944.504	58.46
944.752	12.46
944.999	-45.54
945.246	-128.54
945.493	-47.54
945.74	-52.54
945.987	-121.54
946.234	-55.54
946.482	32.46
946.729	-88.54
946.976	-136.54
947.223	-116.54
947.47	60.46
947.717	7.46
947.964	9.46
948.211	-20.54
948.458	31.46
948.705	-32.54
948.952	-135.54
949.2	-75.54
949.447	47.46
949.694	42.46
949.941	-99.54
950.188	-112.54
950.435	-101.54
950.682	-72.54
950.929	-183.54
951.176	-138.54
951.423	28.46
951.67	18.46
951.917	-26.54
952.164	-34.54
952.411	26.46
952.658	77.46
952.905	-80.54
953.152	-135.54
953.399	-20.54
953.646	-28.54
953.893	-131.54
954.14	-111.54
954.387	-55.54
954.634	-58.54
954.881	-123.54
955.128	-57.54
955.375	-59.54
955.622	-56.54
955.869	-59.54
956.115	-65.54
956.362	-2.54
956.609	-50.54
956.856	-127.54
957.103	-103.54
957.35	7.46
957.597	15.46
957.844	-65.54
958.091	-67.54
958.338	8.46
958.585	-58.54
958.831	-225.54
959.078	-155.54
959.325	19.46
959.572	-79.54
959.819	-160.54
960.066	-195.54
960.313	-59.54
960.559	-87.54
960.806	-214.54
961.053	-167.54
961.3	3.46
961.547	32.46
961.794	-157.54
962.04	-26.54
962.287	24.46
962.534	-99.54
962.781	-134.54
963.028	-86.54
963.274	53.46
963.521	-42.54
963.768	-130.54
964.015	-91.54
964.262	71.46
964.508	-72.54
964.755	-164.54
965.002	-137.54
965.249	-96.54
965.495	-133.54
965.742	-152.54
965.989	-155.54
966.236	-33.54
966.482	-97.54
966.729	-158.54
966.976	-171.54
967.222	-106.54
967.469	-87.54
967.716	-148.54
967.963	-135.54
968.209	-61.54
968.456	-111.54
968.703	-202.54
968.949	-104.54
969.196	63.46
969.443	73.46
969.689	-148.54
969.936	-184.54
970.183	-80.54
970.429	-127.54
970.676	-192.54
970.923	-112.54
971.169	-43.54
971.416	-120.54
971.663	-156.54
971.909	-92.54
972.156	-34.54
972.402	-34.54
972.649	-107.54
972.896	-68.54
973.142	-54.54
973.389	-33.54
973.635	-128.54
973.882	-16.54
974.129	42.46
974.375	-81.54
974.622	-152.54
974.868	-141.54
975.115	-58.54
975.361	-106.54
975.608	-138.54
975.855	-14.54
976.101	7.46
976.348	-74.54
976.594	-130.54
976.841	-69.54
977.087	-70.54
977.334	-38.54
977.58	-161.54
977.827	-159.54
978.073	-16.54
978.32	-51.54
978.566	-178.54
978.813	-91.54
979.059	-62.54
979.306	-92.54
979.552	-182.54
979.799	-93.54
980.045	-88.54
980.292	-90.54
980.538	-170.54
980.785	-170.54
981.031	-119.54
981.278	-135.54
981.524	-191.54
981.771	-47.54
982.017	92.46
982.263	-10.54
982.51	-154.54
982.756	-82.54
983.003	-17.54
983.249	-80.54
983.495	-162.54
983.742	-174.54
983.988	-82.54
984.235	-57.54
984.481	-153.54
984.727	-140.54
984.974	-22.54
985.22	-30.54
985.467	-102.54
985.713	-121.54
985.959	3.46
986.206	-18.54
986.452	-112.54
986.698	-70.54
986.945	-40.54
987.191	-11.54
987.437	-8.54
987.684	-55.54
987.93	95.46
988.176	10.46
988.423	-169.54
988.669	-100.54
988.915	68.46
989.162	-82.54
989.408	-182.54
989.654	-100.54
989.901	-76.54
990.147	-68.54
990.393	-62.54
990.639	-12.54
990.886	11.46
991.132	63.46
991.378	-8.54
991.625	111.46
991.871	94.46
992.117	6.46
992.363	-50.54
992.61	-36.54
992.856	78.46
993.102	-63.54
993.348	-131.54
993.594	-99.54
993.841	-58.54
994.087	72.46
994.333	-62.54
994.579	-72.54
994.826	-32.54
995.072	-30.54
995.318	-212.54
995.564	-160.54
995.81	-40.54
996.057	-86.54
996.303	-176.54
996.549	-149.54
996.795	-52.54
997.041	-77.54
997.287	-114.54
997.534	-121.54
997.78	-71.54
998.026	-52.54
998.272	-163.54
998.518	-159.54
998.764	-8.54
999.01	14.46
999.256	-90.54
999.503	-129.54
999.749	-100.54
999.995	-154.54
1000.241	-181.54
1000.487	-102.54
1000.733	-46.54
1000.979	-86.54
1001.225	-106.54
1001.471	-42.54
1001.718	4.46
1001.964	39.46
1002.21	-146.54
1002.456	-95.54
1002.702	40.46
1002.948	-58.54
1003.194	-136.54
1003.44	-154.54
1003.686	-58.54
1003.932	-116.54
1004.178	-153.54
1004.424	-99.54
1004.67	27.46
1004.916	25.46
1005.162	-75.54
1005.408	-117.54
1005.654	13.46
1005.9	-145.54
1006.146	-203.54
1006.392	-129.54
1006.638	-41.54
1006.884	-81.54
1007.13	-152.54
1007.376	-187.54
1007.622	-10.54
1007.868	15.46
1008.114	-104.54
1008.36	-40.54
1008.606	-9.54
1008.852	-1.54
1009.098	-81.54
1009.344	-48.54
1009.59	-53.54
1009.836	-167.54
1010.082	-236.54
1010.328	-130.54
1010.574	-51.54
1010.82	-142.54
1011.065	-227.54
1011.311	-205.54
1011.557	-91.54
1011.803	-118.54
1012.049	-172.54
1012.295	-112.54
1012.541	-88.54
1012.787	-86.54
1013.033	-212.54
1013.278	-223.54
1013.524	-67.54
1013.77	-5.54
1014.016	-107.54
1014.262	-96.54
1014.508	18.46
1014.754	-150.54
1015	-164.54
1015.245	-3.54
1015.491	15.46
1015.737	-26.54
1015.983	-151.54
1016.229	-186.54
1016.475	-66.54
1016.72	55.46
1016.966	65.46
1017.212	-45.54
1017.458	20.46
1017.704	-55.54
1017.949	-177.54
1018.195	-5.54
1018.441	81.46
1018.687	29.46
1018.933	-115.54
1019.178	-118.54
1019.424	27.46
1019.67	62.46
1019.916	-144.54
1020.161	-104.54
1020.407	-34.54
1020.653	-84.54
1020.899	-173.54
1021.144	-91.54
1021.39	-11.54
1021.636	-120.54
1021.882	-206.54
1022.127	-88.54
1022.373	67.46
1022.619	8.46
1022.865	-114.54
1023.11	-104.54
1023.356	41.46
1023.602	-36.54
1023.847	-116.54
1024.093	-57.54
1024.339	-83.54
1024.584	-104.54
1024.83	-109.54
1025.076	-99.54
1025.321	14.46
1025.567	-17.54
1025.813	-135.54
1026.058	-58.54
1026.304	1.46
1026.55	-79.54
1026.795	-106.54
1027.041	-106.54
1027.287	-32.54
1027.532	-10.54
1027.778	-33.54
1028.024	-72.54
1028.269	-30.54
1028.515	-107.54
1028.76	-159.54
1029.006	-84.54
1029.252	7.46
1029.497	-70.54
1029.743	-70.54
1029.989	-141.54
1030.234	3.46
1030.48	73.46
1030.725	-126.54
1030.971	-97.54
1031.216	41.46
1031.462	-46.54
1031.708	-178.54
1031.953	-146.54
1032.199	-52.54
1032.444	-26.54
1032.69	-87.54
1032.935	-101.54
1033.181	28.46
1033.426	-90.54
1033.672	-241.54
1033.918	-179.54
1034.163	-68.54
1034.409	-85.54
1034.654	-138.54
1034.9	-56.54
1035.145	14.46
1035.391	-57.54
1035.636	-168.54
1035.882	-83.54
1036.127	-102.54
1036.373	-131.54
1036.618	-216.54
1036.864	-111.54
1037.109	32.46
1037.355	-70.54
1037.6	-151.54
1037.845	-114.54
1038.091	92.46
1038.336	72.46
1038.582	76.46
1038.827	135.46
1039.073	-15.54
1039.318	-105.54
1039.564	-207.54
1039.809	-131.54
1040.055	41.46
1040.3	32.46
1040.545	-112.54
1040.791	-126.54
1041.036	-58.54
1041.282	-27.54
1041.527	29.46
1041.772	-139.54
1042.018	-63.54
1042.263	-42.54
1042.509	-189.54
1042.754	-138.54
1042.999	-15.54
1043.245	-44.54
1043.49	-223.54
1043.736	-142.54
1043.981	-60.54
1044.226	-38.54
1044.472	-62.54
1044.717	-64.54
1044.962	41.46
1045.208	-39.54
1045.453	-260.54
1045.698	-183.54
1045.944	15.46
1046.189	-28.54
1046.434	-132.54
1046.68	-94.54
1046.925	79.46
1047.17	-71.54
1047.416	-240.54
1047.661	-135.54
1047.906	8.46
1048.152	-8.54
1048.397	-104.54
1048.642	-119.54
1048.887	71.46
1049.133	86.46
1049.378	-92.54
1049.623	-121.54
1049.869	3.46
1050.114	-70.54
1050.359	-136.54
1050.604	-69.54
1050.85	69.46
1051.095	-56.54
1051.34	-146.54
1051.585	-71.54
1051.831	116.46
1052.076	-42.54
1052.321	-252.54
1052.566	-142.54
1052.812	49.46
1053.057	-41.54
1053.302	-104.54
1053.547	-25.54
1053.792	21.46
1054.038	25.46
1054.283	-184.54
1054.528	-106.54
1054.773	-27.54
1055.018	-27.54
1055.264	-134.54
1055.509	-146.54
1055.754	-30.54
1055.999	-108.54
1056.244	-188.54
1056.49	-104.54
1056.735	-16.54
1056.98	-83.54
1057.225	-163.54
1057.47	35.46
1057.715	-53.54
1057.96	-135.54
1058.206	-173.54
1058.451	-72.54
1058.696	61.46
1058.941	-4.54
1059.186	-176.54
1059.431	-151.54
1059.676	56.46
1059.922	-3.54
1060.167	82.46
1060.412	244.46
1060.657	21.46
1060.902	-34.54
1061.147	-204.54
1061.392	-109.54
1061.637	12.46
1061.882	-60.54
1062.127	-211.54
1062.373	-198.54
1062.618	62.46
1062.863	92.46
1063.108	-103.54
1063.353	-160.54
1063.598	-56.54
1063.843	-79.54
1064.088	-156.54
1064.333	-158.54
1064.578	4.46
1064.823	20.46
1065.068	-206.54
1065.313	-144.54
1065.558	7.46
1065.803	9.46
1066.048	-181.54
1066.293	-170.54
1066.538	37.46
1066.783	-20.54
1067.028	-196.54
1067.273	-178.54
1067.518	-3.54
1067.763	-82.54
1068.008	-216.54
1068.253	-131.54
1068.498	43.46
1068.743	-36.54
1068.988	-184.54
1069.233	-178.54
1069.478	39.46
1069.723	103.46
1069.968	-116.54
1070.213	-70.54
1070.458	38.46
1070.703	-39.54
1070.948	-225.54
1071.193	-124.54
1071.438	18.46
1071.683	57.46
1071.928	-76.54
1072.173	-98.54
1072.418	-12.54
1072.663	-46.54
1072.908	-190.54
1073.152	-120.54
1073.397	52.46
1073.642	-66.54
1073.887	-101.54
1074.132	11.46
1074.377	-10.54
1074.622	-32.54
1074.867	-156.54
1075.112	-97.54
1075.357	93.46
1075.601	-52.54
1075.846	-104.54
1076.091	0.46
1076.336	34.46
1076.581	-104.54
1076.826	-210.54
1077.071	-113.54
1077.315	156.46
1077.56	64.46
1077.805	-144.54
1078.05	-103.54
1078.295	-47.54
1078.54	-75.54
1078.785	-204.54
1079.029	-144.54
1079.274	23.46
1079.519	-103.54
1079.764	-189.54
1080.009	-47.54
1080.253	16.46
1080.498	-94.54
1080.743	-235.54
1080.988	-102.54
1081.233	123.46
1081.478	70.46
1081.722	-151.54
1081.967	-36.54
1082.212	133.46
1082.457	12.46
1082.701	-125.54
1082.946	-98.54
1083.191	23.46
1083.436	-89.54
1083.681	-232.54
1083.925	-116.54
1084.17	-3.54
1084.415	13.46
1084.66	-200.54
1084.904	-93.54
1085.149	-14.54
1085.394	-55.54
1085.639	-217.54
1085.883	-120.54
1086.128	127.46
1086.373	133.46
1086.617	-89.54
1086.862	-166.54
1087.107	-37.54
1087.352	-85.54
1087.596	-175.54
1087.841	-48.54
1088.086	11.46
1088.33	-8.54
1088.575	-250.54
1088.82	-110.54
1089.064	75.46
1089.309	-85.54
1089.554	-203.54
1089.798	-184.54
1090.043	16.46
1090.288	-36.54
1090.533	-216.54
1090.777	-144.54
1091.022	19.46
1091.266	55.46
1091.511	-126.54
1091.756	-53.54
1092	105.46
1092.245	74.46
1092.49	-174.54
1092.734	-115.54
1092.979	79.46
1093.224	-34.54
1093.468	-178.54
1093.713	-136.54
1093.957	1.46
1094.202	-58.54
1094.447	-225.54
1094.691	-120.54
1094.936	31.46
1095.181	-4.54
1095.425	-191.54
1095.67	-161.54
1095.914	-5.54
1096.159	-17.54
1096.403	-172.54
1096.648	-71.54
1096.893	47.46
1097.137	-92.54
1097.382	-231.54
1097.626	-158.54
1097.871	8.46
1098.115	-46.54
1098.36	-204.54
1098.605	-117.54
1098.849	-48.54
1099.094	-124.54
1099.338	-214.54
1099.583	-121.54
1099.827	128.46
1100.072	24.46
1100.316	-170.54
1100.561	-107.54
1100.805	64.46
1101.05	31.46
1101.294	-178.54
1101.539	-153.54
1101.783	4.46
1102.028	-1.54
1102.273	-157.54
1102.517	-75.54
1102.761	52.46
1103.006	-79.54
1103.25	-279.54
1103.495	-172.54
1103.739	37.46
1103.984	92.46
1104.228	-110.54
1104.473	-50.54
1104.717	27.46
1104.962	10.46
1105.206	-112.54
1105.451	-158.54
1105.695	19.46
1105.94	-14.54
1106.184	-148.54
1106.429	-90.54
1106.673	5.46
1106.917	47.46
1107.162	-176.54
1107.406	-29.54
1107.651	138.46
1107.895	-72.54
1108.14	-183.54
1108.384	-95.54
1108.628	102.46
1108.873	100.46
1109.117	-139.54
1109.362	-124.54
1109.606	-32.54
1109.85	-16.54
1110.095	-151.54
1110.339	-90.54
1110.584	89.46
1110.828	36.46
1111.072	-93.54
1111.317	-118.54
1111.561	-35.54
1111.806	-45.54
1112.05	-176.54
1112.294	-86.54
1112.539	14.46
1112.783	-16.54
1113.027	-125.54
1113.272	-126.54
1113.516	-30.54
1113.76	-53.54
1114.005	-147.54
1114.249	-79.54
1114.493	69.46
1114.738	92.46
1114.982	-50.54
1115.226	-91.54
1115.471	-4.54
1115.715	-18.54
1115.959	-191.54
1116.204	-171.54
1116.448	6.46
1116.692	-99.54
1116.937	-170.54
1117.181	-23.54
1117.425	-30.54
1117.67	-72.54
1117.914	-136.54
1118.158	-85.54
1118.402	138.46
1118.647	54.46
1118.891	-93.54
1119.135	-34.54
1119.38	105.46
1119.624	3.46
1119.868	-152.54
1120.112	-155.54
1120.357	-62.54
1120.601	-124.54
1120.845	-220.54
1121.089	-147.54
1121.334	44.46
